STUDYID,DOMAIN,USUBJID,VSSEQ,VSTESTCD,VSTEST,VSORRES,VSORRESU,VSSTRESC,VSSTRESN,VSSTRESU,VSBLFL,VISITNUM,VISIT,VSDTC
INTEGRIS-001,VS,ICS001-001,1,SYSBP,Systolic Blood Pressure,135.3,mmHg,135.3,135.3,mmHg,,1,SCREENING,2024-02-12
INTEGRIS-001,VS,ICS001-001,2,DIABP,Diastolic Blood Pressure,69.2,mmHg,69.2,69.2,mmHg,,1,SCREENING,2024-02-12
INTEGRIS-001,VS,ICS001-001,3,PULSE,Pulse Rate,64.9,beats/min,64.9,64.9,beats/min,,1,SCREENING,2024-02-12
INTEGRIS-001,VS,ICS001-001,4,TEMP,Temperature,36.1,C,36.1,36.1,C,,1,SCREENING,2024-02-12
INTEGRIS-001,VS,ICS001-001,5,WEIGHT,Weight,87.9,kg,87.9,87.9,kg,,1,SCREENING,2024-02-12
INTEGRIS-001,VS,ICS001-001,6,HEIGHT,Height,164.2,cm,164.2,164.2,cm,,1,SCREENING,2024-02-12
INTEGRIS-001,VS,ICS001-001,7,SYSBP,Systolic Blood Pressure,154.3,mmHg,154.3,154.3,mmHg,Y,2,BASELINE,2024-03-11
INTEGRIS-001,VS,ICS001-001,8,DIABP,Diastolic Blood Pressure,94.4,mmHg,94.4,94.4,mmHg,Y,2,BASELINE,2024-03-11
INTEGRIS-001,VS,ICS001-001,9,PULSE,Pulse Rate,58.2,beats/min,58.2,58.2,beats/min,Y,2,BASELINE,2024-03-11
INTEGRIS-001,VS,ICS001-001,10,TEMP,Temperature,36.4,C,36.4,36.4,C,Y,2,BASELINE,2024-03-11
INTEGRIS-001,VS,ICS001-001,11,WEIGHT,Weight,90.1,kg,90.1,90.1,kg,Y,2,BASELINE,2024-03-11
INTEGRIS-001,VS,ICS001-001,12,HEIGHT,Height,163.6,cm,163.6,163.6,cm,Y,2,BASELINE,2024-03-11
INTEGRIS-001,VS,ICS001-001,13,SYSBP,Systolic Blood Pressure,107.9,mmHg,107.9,107.9,mmHg,,3,WEEK 4,2024-04-08
INTEGRIS-001,VS,ICS001-001,14,DIABP,Diastolic Blood Pressure,97.4,mmHg,97.4,97.4,mmHg,,3,WEEK 4,2024-04-08
INTEGRIS-001,VS,ICS001-001,15,PULSE,Pulse Rate,80.7,beats/min,80.7,80.7,beats/min,,3,WEEK 4,2024-04-08
INTEGRIS-001,VS,ICS001-001,16,TEMP,Temperature,36.9,C,36.9,36.9,C,,3,WEEK 4,2024-04-08
INTEGRIS-001,VS,ICS001-001,17,WEIGHT,Weight,97.1,kg,97.1,97.1,kg,,3,WEEK 4,2024-04-08
INTEGRIS-001,VS,ICS001-001,18,HEIGHT,Height,187.3,cm,187.3,187.3,cm,,3,WEEK 4,2024-04-08
INTEGRIS-001,VS,ICS001-001,19,SYSBP,Systolic Blood Pressure,111.4,mmHg,111.4,111.4,mmHg,,4,WEEK 8,2024-05-06
INTEGRIS-001,VS,ICS001-001,20,DIABP,Diastolic Blood Pressure,63.9,mmHg,63.9,63.9,mmHg,,4,WEEK 8,2024-05-06
INTEGRIS-001,VS,ICS001-001,21,PULSE,Pulse Rate,74.4,beats/min,74.4,74.4,beats/min,,4,WEEK 8,2024-05-06
INTEGRIS-001,VS,ICS001-001,22,TEMP,Temperature,36.8,C,36.8,36.8,C,,4,WEEK 8,2024-05-06
INTEGRIS-001,VS,ICS001-001,23,WEIGHT,Weight,78.0,kg,78.0,78.0,kg,,4,WEEK 8,2024-05-06
INTEGRIS-001,VS,ICS001-001,24,HEIGHT,Height,184.2,cm,184.2,184.2,cm,,4,WEEK 8,2024-05-06
INTEGRIS-001,VS,ICS001-001,25,SYSBP,Systolic Blood Pressure,140.4,mmHg,140.4,140.4,mmHg,,5,WEEK 12,2024-06-03
INTEGRIS-001,VS,ICS001-001,26,DIABP,Diastolic Blood Pressure,99.4,mmHg,99.4,99.4,mmHg,,5,WEEK 12,2024-06-03
INTEGRIS-001,VS,ICS001-001,27,PULSE,Pulse Rate,59.4,beats/min,59.4,59.4,beats/min,,5,WEEK 12,2024-06-03
INTEGRIS-001,VS,ICS001-001,28,TEMP,Temperature,36.7,C,36.7,36.7,C,,5,WEEK 12,2024-06-03
INTEGRIS-001,VS,ICS001-001,29,WEIGHT,Weight,70.4,kg,70.4,70.4,kg,,5,WEEK 12,2024-06-03
INTEGRIS-001,VS,ICS001-001,30,HEIGHT,Height,189.5,cm,189.5,189.5,cm,,5,WEEK 12,2024-06-03
INTEGRIS-001,VS,ICS001-001,31,SYSBP,Systolic Blood Pressure,114.9,mmHg,114.9,114.9,mmHg,,6,WEEK 24,2024-07-01
INTEGRIS-001,VS,ICS001-001,32,DIABP,Diastolic Blood Pressure,67.6,mmHg,67.6,67.6,mmHg,,6,WEEK 24,2024-07-01
INTEGRIS-001,VS,ICS001-001,33,PULSE,Pulse Rate,75.2,beats/min,75.2,75.2,beats/min,,6,WEEK 24,2024-07-01
INTEGRIS-001,VS,ICS001-001,34,TEMP,Temperature,36.8,C,36.8,36.8,C,,6,WEEK 24,2024-07-01
INTEGRIS-001,VS,ICS001-001,35,WEIGHT,Weight,66.7,kg,66.7,66.7,kg,,6,WEEK 24,2024-07-01
INTEGRIS-001,VS,ICS001-001,36,HEIGHT,Height,165.0,cm,165.0,165.0,cm,,6,WEEK 24,2024-07-01
INTEGRIS-001,VS,ICS001-002,37,SYSBP,Systolic Blood Pressure,155.4,mmHg,155.4,155.4,mmHg,,1,SCREENING,2024-05-02
INTEGRIS-001,VS,ICS001-002,38,DIABP,Diastolic Blood Pressure,77.7,mmHg,77.7,77.7,mmHg,,1,SCREENING,2024-05-02
INTEGRIS-001,VS,ICS001-002,39,PULSE,Pulse Rate,93.8,beats/min,93.8,93.8,beats/min,,1,SCREENING,2024-05-02
INTEGRIS-001,VS,ICS001-002,40,TEMP,Temperature,37.0,C,37.0,37.0,C,,1,SCREENING,2024-05-02
INTEGRIS-001,VS,ICS001-002,41,WEIGHT,Weight,53.0,kg,53.0,53.0,kg,,1,SCREENING,2024-05-02
INTEGRIS-001,VS,ICS001-002,42,HEIGHT,Height,195.0,cm,195.0,195.0,cm,,1,SCREENING,2024-05-02
INTEGRIS-001,VS,ICS001-002,43,SYSBP,Systolic Blood Pressure,150.2,mmHg,150.2,150.2,mmHg,Y,2,BASELINE,2024-05-30
INTEGRIS-001,VS,ICS001-002,44,DIABP,Diastolic Blood Pressure,98.8,mmHg,98.8,98.8,mmHg,Y,2,BASELINE,2024-05-30
INTEGRIS-001,VS,ICS001-002,45,PULSE,Pulse Rate,96.7,beats/min,96.7,96.7,beats/min,Y,2,BASELINE,2024-05-30
INTEGRIS-001,VS,ICS001-002,46,TEMP,Temperature,37.5,C,37.5,37.5,C,Y,2,BASELINE,2024-05-30
INTEGRIS-001,VS,ICS001-002,47,WEIGHT,Weight,60.0,kg,60.0,60.0,kg,Y,2,BASELINE,2024-05-30
INTEGRIS-001,VS,ICS001-002,48,HEIGHT,Height,174.4,cm,174.4,174.4,cm,Y,2,BASELINE,2024-05-30
INTEGRIS-001,VS,ICS001-002,49,SYSBP,Systolic Blood Pressure,112.8,mmHg,112.8,112.8,mmHg,,3,WEEK 4,2024-06-27
INTEGRIS-001,VS,ICS001-002,50,DIABP,Diastolic Blood Pressure,76.0,mmHg,76.0,76.0,mmHg,,3,WEEK 4,2024-06-27
INTEGRIS-001,VS,ICS001-002,51,PULSE,Pulse Rate,57.6,beats/min,57.6,57.6,beats/min,,3,WEEK 4,2024-06-27
INTEGRIS-001,VS,ICS001-002,52,TEMP,Temperature,36.7,C,36.7,36.7,C,,3,WEEK 4,2024-06-27
INTEGRIS-001,VS,ICS001-002,53,WEIGHT,Weight,109.1,kg,109.1,109.1,kg,,3,WEEK 4,2024-06-27
INTEGRIS-001,VS,ICS001-002,54,HEIGHT,Height,165.6,cm,165.6,165.6,cm,,3,WEEK 4,2024-06-27
INTEGRIS-001,VS,ICS001-002,55,SYSBP,Systolic Blood Pressure,147.0,mmHg,147.0,147.0,mmHg,,4,WEEK 8,2024-07-25
INTEGRIS-001,VS,ICS001-002,56,DIABP,Diastolic Blood Pressure,78.2,mmHg,78.2,78.2,mmHg,,4,WEEK 8,2024-07-25
INTEGRIS-001,VS,ICS001-002,57,PULSE,Pulse Rate,74.0,beats/min,74.0,74.0,beats/min,,4,WEEK 8,2024-07-25
INTEGRIS-001,VS,ICS001-002,58,TEMP,Temperature,37.7,C,37.7,37.7,C,,4,WEEK 8,2024-07-25
INTEGRIS-001,VS,ICS001-002,59,WEIGHT,Weight,109.7,kg,109.7,109.7,kg,,4,WEEK 8,2024-07-25
INTEGRIS-001,VS,ICS001-002,60,HEIGHT,Height,177.2,cm,177.2,177.2,cm,,4,WEEK 8,2024-07-25
INTEGRIS-001,VS,ICS001-002,61,SYSBP,Systolic Blood Pressure,143.1,mmHg,143.1,143.1,mmHg,,5,WEEK 12,2024-08-22
INTEGRIS-001,VS,ICS001-002,62,DIABP,Diastolic Blood Pressure,66.2,mmHg,66.2,66.2,mmHg,,5,WEEK 12,2024-08-22
INTEGRIS-001,VS,ICS001-002,63,PULSE,Pulse Rate,68.4,beats/min,68.4,68.4,beats/min,,5,WEEK 12,2024-08-22
INTEGRIS-001,VS,ICS001-002,64,TEMP,Temperature,37.7,C,37.7,37.7,C,,5,WEEK 12,2024-08-22
INTEGRIS-001,VS,ICS001-002,65,WEIGHT,Weight,84.8,kg,84.8,84.8,kg,,5,WEEK 12,2024-08-22
INTEGRIS-001,VS,ICS001-002,66,HEIGHT,Height,176.7,cm,176.7,176.7,cm,,5,WEEK 12,2024-08-22
INTEGRIS-001,VS,ICS001-002,67,SYSBP,Systolic Blood Pressure,144.9,mmHg,144.9,144.9,mmHg,,6,WEEK 24,2024-09-19
INTEGRIS-001,VS,ICS001-002,68,DIABP,Diastolic Blood Pressure,62.3,mmHg,62.3,62.3,mmHg,,6,WEEK 24,2024-09-19
INTEGRIS-001,VS,ICS001-002,69,PULSE,Pulse Rate,81.3,beats/min,81.3,81.3,beats/min,,6,WEEK 24,2024-09-19
INTEGRIS-001,VS,ICS001-002,70,TEMP,Temperature,36.9,C,36.9,36.9,C,,6,WEEK 24,2024-09-19
INTEGRIS-001,VS,ICS001-002,71,WEIGHT,Weight,101.2,kg,101.2,101.2,kg,,6,WEEK 24,2024-09-19
INTEGRIS-001,VS,ICS001-002,72,HEIGHT,Height,161.3,cm,161.3,161.3,cm,,6,WEEK 24,2024-09-19
INTEGRIS-001,VS,ICS001-003,73,SYSBP,Systolic Blood Pressure,157.6,mmHg,157.6,157.6,mmHg,,1,SCREENING,2024-05-01
INTEGRIS-001,VS,ICS001-003,74,DIABP,Diastolic Blood Pressure,63.2,mmHg,63.2,63.2,mmHg,,1,SCREENING,2024-05-01
INTEGRIS-001,VS,ICS001-003,75,PULSE,Pulse Rate,63.4,beats/min,63.4,63.4,beats/min,,1,SCREENING,2024-05-01
INTEGRIS-001,VS,ICS001-003,76,TEMP,Temperature,37.1,C,37.1,37.1,C,,1,SCREENING,2024-05-01
INTEGRIS-001,VS,ICS001-003,77,WEIGHT,Weight,90.5,kg,90.5,90.5,kg,,1,SCREENING,2024-05-01
INTEGRIS-001,VS,ICS001-003,78,HEIGHT,Height,164.4,cm,164.4,164.4,cm,,1,SCREENING,2024-05-01
INTEGRIS-001,VS,ICS001-003,79,SYSBP,Systolic Blood Pressure,107.2,mmHg,107.2,107.2,mmHg,Y,2,BASELINE,2024-05-29
INTEGRIS-001,VS,ICS001-003,80,DIABP,Diastolic Blood Pressure,95.6,mmHg,95.6,95.6,mmHg,Y,2,BASELINE,2024-05-29
INTEGRIS-001,VS,ICS001-003,81,PULSE,Pulse Rate,66.1,beats/min,66.1,66.1,beats/min,Y,2,BASELINE,2024-05-29
INTEGRIS-001,VS,ICS001-003,82,TEMP,Temperature,37.1,C,37.1,37.1,C,Y,2,BASELINE,2024-05-29
INTEGRIS-001,VS,ICS001-003,83,WEIGHT,Weight,87.2,kg,87.2,87.2,kg,Y,2,BASELINE,2024-05-29
INTEGRIS-001,VS,ICS001-003,84,HEIGHT,Height,171.8,cm,171.8,171.8,cm,Y,2,BASELINE,2024-05-29
INTEGRIS-001,VS,ICS001-003,85,SYSBP,Systolic Blood Pressure,135.0,mmHg,135.0,135.0,mmHg,,3,WEEK 4,2024-06-26
INTEGRIS-001,VS,ICS001-003,86,DIABP,Diastolic Blood Pressure,80.9,mmHg,80.9,80.9,mmHg,,3,WEEK 4,2024-06-26
INTEGRIS-001,VS,ICS001-003,87,PULSE,Pulse Rate,97.1,beats/min,97.1,97.1,beats/min,,3,WEEK 4,2024-06-26
INTEGRIS-001,VS,ICS001-003,88,TEMP,Temperature,36.4,C,36.4,36.4,C,,3,WEEK 4,2024-06-26
INTEGRIS-001,VS,ICS001-003,89,WEIGHT,Weight,93.0,kg,93.0,93.0,kg,,3,WEEK 4,2024-06-26
INTEGRIS-001,VS,ICS001-003,90,HEIGHT,Height,164.5,cm,164.5,164.5,cm,,3,WEEK 4,2024-06-26
INTEGRIS-001,VS,ICS001-003,91,SYSBP,Systolic Blood Pressure,195.0,mmHg,195.0,195.0,mmHg,,4,WEEK 8,2024-07-24
INTEGRIS-001,VS,ICS001-003,92,DIABP,Diastolic Blood Pressure,86.9,mmHg,86.9,86.9,mmHg,,4,WEEK 8,2024-07-24
INTEGRIS-001,VS,ICS001-003,93,PULSE,Pulse Rate,68.5,beats/min,68.5,68.5,beats/min,,4,WEEK 8,2024-07-24
INTEGRIS-001,VS,ICS001-003,94,TEMP,Temperature,36.6,C,36.6,36.6,C,,4,WEEK 8,2024-07-24
INTEGRIS-001,VS,ICS001-003,95,WEIGHT,Weight,95.1,kg,95.1,95.1,kg,,4,WEEK 8,2024-07-24
INTEGRIS-001,VS,ICS001-003,96,HEIGHT,Height,157.9,cm,157.9,157.9,cm,,4,WEEK 8,2024-07-24
INTEGRIS-001,VS,ICS001-003,97,SYSBP,Systolic Blood Pressure,127.5,mmHg,127.5,127.5,mmHg,,5,WEEK 12,2024-08-21
INTEGRIS-001,VS,ICS001-003,98,DIABP,Diastolic Blood Pressure,99.9,mmHg,99.9,99.9,mmHg,,5,WEEK 12,2024-08-21
INTEGRIS-001,VS,ICS001-003,99,PULSE,Pulse Rate,99.8,beats/min,99.8,99.8,beats/min,,5,WEEK 12,2024-08-21
INTEGRIS-001,VS,ICS001-003,100,TEMP,Temperature,36.1,C,36.1,36.1,C,,5,WEEK 12,2024-08-21
INTEGRIS-001,VS,ICS001-003,101,WEIGHT,Weight,62.8,kg,62.8,62.8,kg,,5,WEEK 12,2024-08-21
INTEGRIS-001,VS,ICS001-003,102,HEIGHT,Height,165.6,cm,165.6,165.6,cm,,5,WEEK 12,2024-08-21
INTEGRIS-001,VS,ICS001-003,103,SYSBP,Systolic Blood Pressure,156.0,mmHg,156.0,156.0,mmHg,,6,WEEK 24,2024-09-18
INTEGRIS-001,VS,ICS001-003,104,DIABP,Diastolic Blood Pressure,95.2,mmHg,95.2,95.2,mmHg,,6,WEEK 24,2024-09-18
INTEGRIS-001,VS,ICS001-003,105,PULSE,Pulse Rate,94.6,beats/min,94.6,94.6,beats/min,,6,WEEK 24,2024-09-18
INTEGRIS-001,VS,ICS001-003,106,TEMP,Temperature,36.7,C,36.7,36.7,C,,6,WEEK 24,2024-09-18
INTEGRIS-001,VS,ICS001-003,107,WEIGHT,Weight,59.5,kg,59.5,59.5,kg,,6,WEEK 24,2024-09-18
INTEGRIS-001,VS,ICS001-003,108,HEIGHT,Height,188.3,cm,188.3,188.3,cm,,6,WEEK 24,2024-09-18
INTEGRIS-001,VS,ICS001-004,109,SYSBP,Systolic Blood Pressure,142.2,mmHg,142.2,142.2,mmHg,,1,SCREENING,2024-04-11
INTEGRIS-001,VS,ICS001-004,110,DIABP,Diastolic Blood Pressure,84.5,mmHg,84.5,84.5,mmHg,,1,SCREENING,2024-04-11
INTEGRIS-001,VS,ICS001-004,111,PULSE,Pulse Rate,99.4,beats/min,99.4,99.4,beats/min,,1,SCREENING,2024-04-11
INTEGRIS-001,VS,ICS001-004,112,TEMP,Temperature,37.2,C,37.2,37.2,C,,1,SCREENING,2024-04-11
INTEGRIS-001,VS,ICS001-004,113,WEIGHT,Weight,50.5,kg,50.5,50.5,kg,,1,SCREENING,2024-04-11
INTEGRIS-001,VS,ICS001-004,114,HEIGHT,Height,187.7,cm,187.7,187.7,cm,,1,SCREENING,2024-04-11
INTEGRIS-001,VS,ICS001-004,115,SYSBP,Systolic Blood Pressure,118.0,mmHg,118.0,118.0,mmHg,Y,2,BASELINE,2024-05-09
INTEGRIS-001,VS,ICS001-004,116,DIABP,Diastolic Blood Pressure,86.5,mmHg,86.5,86.5,mmHg,Y,2,BASELINE,2024-05-09
INTEGRIS-001,VS,ICS001-004,117,PULSE,Pulse Rate,97.3,beats/min,97.3,97.3,beats/min,Y,2,BASELINE,2024-05-09
INTEGRIS-001,VS,ICS001-004,118,TEMP,Temperature,36.2,C,36.2,36.2,C,Y,2,BASELINE,2024-05-09
INTEGRIS-001,VS,ICS001-004,119,WEIGHT,Weight,56.9,kg,56.9,56.9,kg,Y,2,BASELINE,2024-05-09
INTEGRIS-001,VS,ICS001-004,120,HEIGHT,Height,159.3,cm,159.3,159.3,cm,Y,2,BASELINE,2024-05-09
INTEGRIS-001,VS,ICS001-004,121,SYSBP,Systolic Blood Pressure,133.2,mmHg,133.2,133.2,mmHg,,3,WEEK 4,2024-06-06
INTEGRIS-001,VS,ICS001-004,122,DIABP,Diastolic Blood Pressure,70.9,mmHg,70.9,70.9,mmHg,,3,WEEK 4,2024-06-06
INTEGRIS-001,VS,ICS001-004,123,PULSE,Pulse Rate,82.2,beats/min,82.2,82.2,beats/min,,3,WEEK 4,2024-06-06
INTEGRIS-001,VS,ICS001-004,124,TEMP,Temperature,37.3,C,37.3,37.3,C,,3,WEEK 4,2024-06-06
INTEGRIS-001,VS,ICS001-004,125,WEIGHT,Weight,62.2,kg,62.2,62.2,kg,,3,WEEK 4,2024-06-06
INTEGRIS-001,VS,ICS001-004,126,HEIGHT,Height,180.4,cm,180.4,180.4,cm,,3,WEEK 4,2024-06-06
INTEGRIS-001,VS,ICS001-004,127,SYSBP,Systolic Blood Pressure,115.8,mmHg,115.8,115.8,mmHg,,4,WEEK 8,2024-07-04
INTEGRIS-001,VS,ICS001-004,128,DIABP,Diastolic Blood Pressure,79.5,mmHg,79.5,79.5,mmHg,,4,WEEK 8,2024-07-04
INTEGRIS-001,VS,ICS001-004,129,PULSE,Pulse Rate,95.7,beats/min,95.7,95.7,beats/min,,4,WEEK 8,2024-07-04
INTEGRIS-001,VS,ICS001-004,130,TEMP,Temperature,37.5,C,37.5,37.5,C,,4,WEEK 8,2024-07-04
INTEGRIS-001,VS,ICS001-004,131,WEIGHT,Weight,55.5,kg,55.5,55.5,kg,,4,WEEK 8,2024-07-04
INTEGRIS-001,VS,ICS001-004,132,HEIGHT,Height,171.9,cm,171.9,171.9,cm,,4,WEEK 8,2024-07-04
INTEGRIS-001,VS,ICS001-004,133,SYSBP,Systolic Blood Pressure,116.6,mmHg,116.6,116.6,mmHg,,5,WEEK 12,2024-08-01
INTEGRIS-001,VS,ICS001-004,134,DIABP,Diastolic Blood Pressure,60.1,mmHg,60.1,60.1,mmHg,,5,WEEK 12,2024-08-01
INTEGRIS-001,VS,ICS001-004,135,PULSE,Pulse Rate,89.7,beats/min,89.7,89.7,beats/min,,5,WEEK 12,2024-08-01
INTEGRIS-001,VS,ICS001-004,136,TEMP,Temperature,37.1,C,37.1,37.1,C,,5,WEEK 12,2024-08-01
INTEGRIS-001,VS,ICS001-004,137,WEIGHT,Weight,65.7,kg,65.7,65.7,kg,,5,WEEK 12,2024-08-01
INTEGRIS-001,VS,ICS001-004,138,HEIGHT,Height,184.6,cm,184.6,184.6,cm,,5,WEEK 12,2024-08-01
INTEGRIS-001,VS,ICS001-004,139,SYSBP,Systolic Blood Pressure,133.1,mmHg,133.1,133.1,mmHg,,6,WEEK 24,2024-08-29
INTEGRIS-001,VS,ICS001-004,140,DIABP,Diastolic Blood Pressure,77.1,mmHg,77.1,77.1,mmHg,,6,WEEK 24,2024-08-29
INTEGRIS-001,VS,ICS001-004,141,PULSE,Pulse Rate,55.4,beats/min,55.4,55.4,beats/min,,6,WEEK 24,2024-08-29
INTEGRIS-001,VS,ICS001-004,142,TEMP,Temperature,36.1,C,36.1,36.1,C,,6,WEEK 24,2024-08-29
INTEGRIS-001,VS,ICS001-004,143,WEIGHT,Weight,103.0,kg,103.0,103.0,kg,,6,WEEK 24,2024-08-29
INTEGRIS-001,VS,ICS001-004,144,HEIGHT,Height,191.2,cm,191.2,191.2,cm,,6,WEEK 24,2024-08-29
INTEGRIS-001,VS,ICS001-005,145,SYSBP,Systolic Blood Pressure,132.7,mmHg,132.7,132.7,mmHg,,1,SCREENING,2024-04-15
INTEGRIS-001,VS,ICS001-005,146,DIABP,Diastolic Blood Pressure,93.4,mmHg,93.4,93.4,mmHg,,1,SCREENING,2024-04-15
INTEGRIS-001,VS,ICS001-005,147,PULSE,Pulse Rate,81.2,beats/min,81.2,81.2,beats/min,,1,SCREENING,2024-04-15
INTEGRIS-001,VS,ICS001-005,148,TEMP,Temperature,36.3,C,36.3,36.3,C,,1,SCREENING,2024-04-15
INTEGRIS-001,VS,ICS001-005,149,WEIGHT,Weight,57.6,kg,57.6,57.6,kg,,1,SCREENING,2024-04-15
INTEGRIS-001,VS,ICS001-005,150,HEIGHT,Height,167.3,cm,167.3,167.3,cm,,1,SCREENING,2024-04-15
INTEGRIS-001,VS,ICS001-005,151,SYSBP,Systolic Blood Pressure,153.9,mmHg,153.9,153.9,mmHg,Y,2,BASELINE,2024-05-13
INTEGRIS-001,VS,ICS001-005,152,DIABP,Diastolic Blood Pressure,91.8,mmHg,91.8,91.8,mmHg,Y,2,BASELINE,2024-05-13
INTEGRIS-001,VS,ICS001-005,153,PULSE,Pulse Rate,93.7,beats/min,93.7,93.7,beats/min,Y,2,BASELINE,2024-05-13
INTEGRIS-001,VS,ICS001-005,154,TEMP,Temperature,37.6,C,37.6,37.6,C,Y,2,BASELINE,2024-05-13
INTEGRIS-001,VS,ICS001-005,155,WEIGHT,Weight,62.6,kg,62.6,62.6,kg,Y,2,BASELINE,2024-05-13
INTEGRIS-001,VS,ICS001-005,156,HEIGHT,Height,165.0,cm,165.0,165.0,cm,Y,2,BASELINE,2024-05-13
INTEGRIS-001,VS,ICS001-005,157,SYSBP,Systolic Blood Pressure,106.2,mmHg,106.2,106.2,mmHg,,3,WEEK 4,2024-06-10
INTEGRIS-001,VS,ICS001-005,158,DIABP,Diastolic Blood Pressure,91.2,mmHg,91.2,91.2,mmHg,,3,WEEK 4,2024-06-10
INTEGRIS-001,VS,ICS001-005,159,PULSE,Pulse Rate,94.8,beats/min,94.8,94.8,beats/min,,3,WEEK 4,2024-06-10
INTEGRIS-001,VS,ICS001-005,160,TEMP,Temperature,36.7,C,36.7,36.7,C,,3,WEEK 4,2024-06-10
INTEGRIS-001,VS,ICS001-005,161,WEIGHT,Weight,87.2,kg,87.2,87.2,kg,,3,WEEK 4,2024-06-10
INTEGRIS-001,VS,ICS001-005,162,HEIGHT,Height,161.2,cm,161.2,161.2,cm,,3,WEEK 4,2024-06-10
INTEGRIS-001,VS,ICS001-005,163,SYSBP,Systolic Blood Pressure,155.8,mmHg,155.8,155.8,mmHg,,4,WEEK 8,2024-07-08
INTEGRIS-001,VS,ICS001-005,164,DIABP,Diastolic Blood Pressure,94.6,mmHg,94.6,94.6,mmHg,,4,WEEK 8,2024-07-08
INTEGRIS-001,VS,ICS001-005,165,PULSE,Pulse Rate,98.9,beats/min,98.9,98.9,beats/min,,4,WEEK 8,2024-07-08
INTEGRIS-001,VS,ICS001-005,166,TEMP,Temperature,37.5,C,37.5,37.5,C,,4,WEEK 8,2024-07-08
INTEGRIS-001,VS,ICS001-005,167,WEIGHT,Weight,102.9,kg,102.9,102.9,kg,,4,WEEK 8,2024-07-08
INTEGRIS-001,VS,ICS001-005,168,HEIGHT,Height,156.0,cm,156.0,156.0,cm,,4,WEEK 8,2024-07-08
INTEGRIS-001,VS,ICS001-005,169,SYSBP,Systolic Blood Pressure,144.2,mmHg,144.2,144.2,mmHg,,5,WEEK 12,2024-08-05
INTEGRIS-001,VS,ICS001-005,170,DIABP,Diastolic Blood Pressure,73.3,mmHg,73.3,73.3,mmHg,,5,WEEK 12,2024-08-05
INTEGRIS-001,VS,ICS001-005,171,PULSE,Pulse Rate,96.9,beats/min,96.9,96.9,beats/min,,5,WEEK 12,2024-08-05
INTEGRIS-001,VS,ICS001-005,172,TEMP,Temperature,37.4,C,37.4,37.4,C,,5,WEEK 12,2024-08-05
INTEGRIS-001,VS,ICS001-005,173,WEIGHT,Weight,101.8,kg,101.8,101.8,kg,,5,WEEK 12,2024-08-05
INTEGRIS-001,VS,ICS001-005,174,HEIGHT,Height,187.4,cm,187.4,187.4,cm,,5,WEEK 12,2024-08-05
INTEGRIS-001,VS,ICS001-005,175,SYSBP,Systolic Blood Pressure,116.0,mmHg,116.0,116.0,mmHg,,6,WEEK 24,2024-09-02
INTEGRIS-001,VS,ICS001-005,176,DIABP,Diastolic Blood Pressure,91.5,mmHg,91.5,91.5,mmHg,,6,WEEK 24,2024-09-02
INTEGRIS-001,VS,ICS001-005,177,PULSE,Pulse Rate,59.9,beats/min,59.9,59.9,beats/min,,6,WEEK 24,2024-09-02
INTEGRIS-001,VS,ICS001-005,178,TEMP,Temperature,37.6,C,37.6,37.6,C,,6,WEEK 24,2024-09-02
INTEGRIS-001,VS,ICS001-005,179,WEIGHT,Weight,101.5,kg,101.5,101.5,kg,,6,WEEK 24,2024-09-02
INTEGRIS-001,VS,ICS001-005,180,HEIGHT,Height,163.9,cm,163.9,163.9,cm,,6,WEEK 24,2024-09-02
INTEGRIS-001,VS,ICS001-006,181,SYSBP,Systolic Blood Pressure,149.0,mmHg,149.0,149.0,mmHg,,1,SCREENING,2024-03-30
INTEGRIS-001,VS,ICS001-006,182,DIABP,Diastolic Blood Pressure,78.4,mmHg,78.4,78.4,mmHg,,1,SCREENING,2024-03-30
INTEGRIS-001,VS,ICS001-006,183,PULSE,Pulse Rate,68.7,beats/min,68.7,68.7,beats/min,,1,SCREENING,2024-03-30
INTEGRIS-001,VS,ICS001-006,184,TEMP,Temperature,37.4,C,37.4,37.4,C,,1,SCREENING,2024-03-30
INTEGRIS-001,VS,ICS001-006,185,WEIGHT,Weight,63.7,kg,63.7,63.7,kg,,1,SCREENING,2024-03-30
INTEGRIS-001,VS,ICS001-006,186,HEIGHT,Height,155.9,cm,155.9,155.9,cm,,1,SCREENING,2024-03-30
INTEGRIS-001,VS,ICS001-006,187,SYSBP,Systolic Blood Pressure,111.6,mmHg,111.6,111.6,mmHg,Y,2,BASELINE,2024-04-27
INTEGRIS-001,VS,ICS001-006,188,DIABP,Diastolic Blood Pressure,73.1,mmHg,73.1,73.1,mmHg,Y,2,BASELINE,2024-04-27
INTEGRIS-001,VS,ICS001-006,189,PULSE,Pulse Rate,93.9,beats/min,93.9,93.9,beats/min,Y,2,BASELINE,2024-04-27
INTEGRIS-001,VS,ICS001-006,190,TEMP,Temperature,37.7,C,37.7,37.7,C,Y,2,BASELINE,2024-04-27
INTEGRIS-001,VS,ICS001-006,191,WEIGHT,Weight,66.7,kg,66.7,66.7,kg,Y,2,BASELINE,2024-04-27
INTEGRIS-001,VS,ICS001-006,192,HEIGHT,Height,180.7,cm,180.7,180.7,cm,Y,2,BASELINE,2024-04-27
INTEGRIS-001,VS,ICS001-006,193,SYSBP,Systolic Blood Pressure,124.0,mmHg,124.0,124.0,mmHg,,3,WEEK 4,2024-05-25
INTEGRIS-001,VS,ICS001-006,194,DIABP,Diastolic Blood Pressure,99.2,mmHg,99.2,99.2,mmHg,,3,WEEK 4,2024-05-25
INTEGRIS-001,VS,ICS001-006,195,PULSE,Pulse Rate,79.1,beats/min,79.1,79.1,beats/min,,3,WEEK 4,2024-05-25
INTEGRIS-001,VS,ICS001-006,196,TEMP,Temperature,37.7,C,37.7,37.7,C,,3,WEEK 4,2024-05-25
INTEGRIS-001,VS,ICS001-006,197,WEIGHT,Weight,56.9,kg,56.9,56.9,kg,,3,WEEK 4,2024-05-25
INTEGRIS-001,VS,ICS001-006,198,HEIGHT,Height,193.8,cm,193.8,193.8,cm,,3,WEEK 4,2024-05-25
INTEGRIS-001,VS,ICS001-006,199,SYSBP,Systolic Blood Pressure,110.7,mmHg,110.7,110.7,mmHg,,4,WEEK 8,2024-06-22
INTEGRIS-001,VS,ICS001-006,200,DIABP,Diastolic Blood Pressure,98.5,mmHg,98.5,98.5,mmHg,,4,WEEK 8,2024-06-22
INTEGRIS-001,VS,ICS001-006,201,PULSE,Pulse Rate,66.9,beats/min,66.9,66.9,beats/min,,4,WEEK 8,2024-06-22
INTEGRIS-001,VS,ICS001-006,202,TEMP,Temperature,36.2,C,36.2,36.2,C,,4,WEEK 8,2024-06-22
INTEGRIS-001,VS,ICS001-006,203,WEIGHT,Weight,76.1,kg,76.1,76.1,kg,,4,WEEK 8,2024-06-22
INTEGRIS-001,VS,ICS001-006,204,HEIGHT,Height,184.1,cm,184.1,184.1,cm,,4,WEEK 8,2024-06-22
INTEGRIS-001,VS,ICS001-006,205,SYSBP,Systolic Blood Pressure,118.8,mmHg,118.8,118.8,mmHg,,5,WEEK 12,2024-07-20
INTEGRIS-001,VS,ICS001-006,206,DIABP,Diastolic Blood Pressure,84.2,mmHg,84.2,84.2,mmHg,,5,WEEK 12,2024-07-20
INTEGRIS-001,VS,ICS001-006,207,PULSE,Pulse Rate,78.0,beats/min,78.0,78.0,beats/min,,5,WEEK 12,2024-07-20
INTEGRIS-001,VS,ICS001-006,208,TEMP,Temperature,36.7,C,36.7,36.7,C,,5,WEEK 12,2024-07-20
INTEGRIS-001,VS,ICS001-006,209,WEIGHT,Weight,84.6,kg,84.6,84.6,kg,,5,WEEK 12,2024-07-20
INTEGRIS-001,VS,ICS001-006,210,HEIGHT,Height,165.2,cm,165.2,165.2,cm,,5,WEEK 12,2024-07-20
INTEGRIS-001,VS,ICS001-006,211,SYSBP,Systolic Blood Pressure,142.5,mmHg,142.5,142.5,mmHg,,6,WEEK 24,2024-08-17
INTEGRIS-001,VS,ICS001-006,212,DIABP,Diastolic Blood Pressure,60.1,mmHg,60.1,60.1,mmHg,,6,WEEK 24,2024-08-17
INTEGRIS-001,VS,ICS001-006,213,PULSE,Pulse Rate,96.7,beats/min,96.7,96.7,beats/min,,6,WEEK 24,2024-08-17
INTEGRIS-001,VS,ICS001-006,214,TEMP,Temperature,37.0,C,37.0,37.0,C,,6,WEEK 24,2024-08-17
INTEGRIS-001,VS,ICS001-006,215,WEIGHT,Weight,93.2,kg,93.2,93.2,kg,,6,WEEK 24,2024-08-17
INTEGRIS-001,VS,ICS001-006,216,HEIGHT,Height,184.7,cm,184.7,184.7,cm,,6,WEEK 24,2024-08-17
INTEGRIS-001,VS,ICS001-007,217,SYSBP,Systolic Blood Pressure,140.2,mmHg,140.2,140.2,mmHg,,1,SCREENING,2024-03-29
INTEGRIS-001,VS,ICS001-007,218,DIABP,Diastolic Blood Pressure,74.6,mmHg,74.6,74.6,mmHg,,1,SCREENING,2024-03-29
INTEGRIS-001,VS,ICS001-007,219,PULSE,Pulse Rate,58.1,beats/min,58.1,58.1,beats/min,,1,SCREENING,2024-03-29
INTEGRIS-001,VS,ICS001-007,220,TEMP,Temperature,37.2,C,37.2,37.2,C,,1,SCREENING,2024-03-29
INTEGRIS-001,VS,ICS001-007,221,WEIGHT,Weight,69.8,kg,69.8,69.8,kg,,1,SCREENING,2024-03-29
INTEGRIS-001,VS,ICS001-007,222,HEIGHT,Height,167.6,cm,167.6,167.6,cm,,1,SCREENING,2024-03-29
INTEGRIS-001,VS,ICS001-007,223,SYSBP,Systolic Blood Pressure,150.9,mmHg,150.9,150.9,mmHg,Y,2,BASELINE,2024-04-26
INTEGRIS-001,VS,ICS001-007,224,DIABP,Diastolic Blood Pressure,88.8,mmHg,88.8,88.8,mmHg,Y,2,BASELINE,2024-04-26
INTEGRIS-001,VS,ICS001-007,225,PULSE,Pulse Rate,68.5,beats/min,68.5,68.5,beats/min,Y,2,BASELINE,2024-04-26
INTEGRIS-001,VS,ICS001-007,226,TEMP,Temperature,36.6,C,36.6,36.6,C,Y,2,BASELINE,2024-04-26
INTEGRIS-001,VS,ICS001-007,227,WEIGHT,Weight,74.5,kg,74.5,74.5,kg,Y,2,BASELINE,2024-04-26
INTEGRIS-001,VS,ICS001-007,228,HEIGHT,Height,171.1,cm,171.1,171.1,cm,Y,2,BASELINE,2024-04-26
INTEGRIS-001,VS,ICS001-007,229,SYSBP,Systolic Blood Pressure,117.7,mmHg,117.7,117.7,mmHg,,3,WEEK 4,2024-05-24
INTEGRIS-001,VS,ICS001-007,230,DIABP,Diastolic Blood Pressure,65.1,mmHg,65.1,65.1,mmHg,,3,WEEK 4,2024-05-24
INTEGRIS-001,VS,ICS001-007,231,PULSE,Pulse Rate,73.9,beats/min,73.9,73.9,beats/min,,3,WEEK 4,2024-05-24
INTEGRIS-001,VS,ICS001-007,232,TEMP,Temperature,37.7,C,37.7,37.7,C,,3,WEEK 4,2024-05-24
INTEGRIS-001,VS,ICS001-007,233,WEIGHT,Weight,90.6,kg,90.6,90.6,kg,,3,WEEK 4,2024-05-24
INTEGRIS-001,VS,ICS001-007,234,HEIGHT,Height,191.1,cm,191.1,191.1,cm,,3,WEEK 4,2024-05-24
INTEGRIS-001,VS,ICS001-007,235,SYSBP,Systolic Blood Pressure,136.9,mmHg,136.9,136.9,mmHg,,4,WEEK 8,2024-06-21
INTEGRIS-001,VS,ICS001-007,236,DIABP,Diastolic Blood Pressure,72.0,mmHg,72.0,72.0,mmHg,,4,WEEK 8,2024-06-21
INTEGRIS-001,VS,ICS001-007,237,PULSE,Pulse Rate,79.7,beats/min,79.7,79.7,beats/min,,4,WEEK 8,2024-06-21
INTEGRIS-001,VS,ICS001-007,238,TEMP,Temperature,36.0,C,36.0,36.0,C,,4,WEEK 8,2024-06-21
INTEGRIS-001,VS,ICS001-007,239,WEIGHT,Weight,67.2,kg,67.2,67.2,kg,,4,WEEK 8,2024-06-21
INTEGRIS-001,VS,ICS001-007,240,HEIGHT,Height,172.2,cm,172.2,172.2,cm,,4,WEEK 8,2024-06-21
INTEGRIS-001,VS,ICS001-007,241,SYSBP,Systolic Blood Pressure,134.8,mmHg,134.8,134.8,mmHg,,5,WEEK 12,2024-07-19
INTEGRIS-001,VS,ICS001-007,242,DIABP,Diastolic Blood Pressure,86.2,mmHg,86.2,86.2,mmHg,,5,WEEK 12,2024-07-19
INTEGRIS-001,VS,ICS001-007,243,PULSE,Pulse Rate,140.0,beats/min,140.0,140.0,beats/min,,5,WEEK 12,2024-07-19
INTEGRIS-001,VS,ICS001-007,244,TEMP,Temperature,36.8,C,36.8,36.8,C,,5,WEEK 12,2024-07-19
INTEGRIS-001,VS,ICS001-007,245,WEIGHT,Weight,62.8,kg,62.8,62.8,kg,,5,WEEK 12,2024-07-19
INTEGRIS-001,VS,ICS001-007,246,HEIGHT,Height,173.9,cm,173.9,173.9,cm,,5,WEEK 12,2024-07-19
INTEGRIS-001,VS,ICS001-007,247,SYSBP,Systolic Blood Pressure,154.1,mmHg,154.1,154.1,mmHg,,6,WEEK 24,2024-08-16
INTEGRIS-001,VS,ICS001-007,248,DIABP,Diastolic Blood Pressure,91.8,mmHg,91.8,91.8,mmHg,,6,WEEK 24,2024-08-16
INTEGRIS-001,VS,ICS001-007,249,PULSE,Pulse Rate,62.6,beats/min,62.6,62.6,beats/min,,6,WEEK 24,2024-08-16
INTEGRIS-001,VS,ICS001-007,250,TEMP,Temperature,36.2,C,36.2,36.2,C,,6,WEEK 24,2024-08-16
INTEGRIS-001,VS,ICS001-007,251,WEIGHT,Weight,80.9,kg,80.9,80.9,kg,,6,WEEK 24,2024-08-16
INTEGRIS-001,VS,ICS001-007,252,HEIGHT,Height,180.3,cm,180.3,180.3,cm,,6,WEEK 24,2024-08-16
INTEGRIS-001,VS,ICS001-008,253,SYSBP,Systolic Blood Pressure,120.1,mmHg,120.1,120.1,mmHg,,1,SCREENING,2024-02-25
INTEGRIS-001,VS,ICS001-008,254,DIABP,Diastolic Blood Pressure,92.7,mmHg,92.7,92.7,mmHg,,1,SCREENING,2024-02-25
INTEGRIS-001,VS,ICS001-008,255,PULSE,Pulse Rate,88.8,beats/min,88.8,88.8,beats/min,,1,SCREENING,2024-02-25
INTEGRIS-001,VS,ICS001-008,256,TEMP,Temperature,37.2,C,37.2,37.2,C,,1,SCREENING,2024-02-25
INTEGRIS-001,VS,ICS001-008,257,WEIGHT,Weight,63.5,kg,63.5,63.5,kg,,1,SCREENING,2024-02-25
INTEGRIS-001,VS,ICS001-008,258,HEIGHT,Height,163.0,cm,163.0,163.0,cm,,1,SCREENING,2024-02-25
INTEGRIS-001,VS,ICS001-008,259,SYSBP,Systolic Blood Pressure,101.5,mmHg,101.5,101.5,mmHg,Y,2,BASELINE,2024-03-24
INTEGRIS-001,VS,ICS001-008,260,DIABP,Diastolic Blood Pressure,69.8,mmHg,69.8,69.8,mmHg,Y,2,BASELINE,2024-03-24
INTEGRIS-001,VS,ICS001-008,261,PULSE,Pulse Rate,76.4,beats/min,76.4,76.4,beats/min,Y,2,BASELINE,2024-03-24
INTEGRIS-001,VS,ICS001-008,262,TEMP,Temperature,37.5,C,37.5,37.5,C,Y,2,BASELINE,2024-03-24
INTEGRIS-001,VS,ICS001-008,263,WEIGHT,Weight,54.4,kg,54.4,54.4,kg,Y,2,BASELINE,2024-03-24
INTEGRIS-001,VS,ICS001-008,264,HEIGHT,Height,171.6,cm,171.6,171.6,cm,Y,2,BASELINE,2024-03-24
INTEGRIS-001,VS,ICS001-008,265,SYSBP,Systolic Blood Pressure,137.8,mmHg,137.8,137.8,mmHg,,3,WEEK 4,2024-04-21
INTEGRIS-001,VS,ICS001-008,266,DIABP,Diastolic Blood Pressure,67.8,mmHg,67.8,67.8,mmHg,,3,WEEK 4,2024-04-21
INTEGRIS-001,VS,ICS001-008,267,PULSE,Pulse Rate,86.3,beats/min,86.3,86.3,beats/min,,3,WEEK 4,2024-04-21
INTEGRIS-001,VS,ICS001-008,268,TEMP,Temperature,36.9,C,36.9,36.9,C,,3,WEEK 4,2024-04-21
INTEGRIS-001,VS,ICS001-008,269,WEIGHT,Weight,64.6,kg,64.6,64.6,kg,,3,WEEK 4,2024-04-21
INTEGRIS-001,VS,ICS001-008,270,HEIGHT,Height,181.2,cm,181.2,181.2,cm,,3,WEEK 4,2024-04-21
INTEGRIS-001,VS,ICS001-008,271,SYSBP,Systolic Blood Pressure,100.3,mmHg,100.3,100.3,mmHg,,4,WEEK 8,2024-05-19
INTEGRIS-001,VS,ICS001-008,272,DIABP,Diastolic Blood Pressure,90.0,mmHg,90.0,90.0,mmHg,,4,WEEK 8,2024-05-19
INTEGRIS-001,VS,ICS001-008,273,PULSE,Pulse Rate,89.7,beats/min,89.7,89.7,beats/min,,4,WEEK 8,2024-05-19
INTEGRIS-001,VS,ICS001-008,274,TEMP,Temperature,36.2,C,36.2,36.2,C,,4,WEEK 8,2024-05-19
INTEGRIS-001,VS,ICS001-008,275,WEIGHT,Weight,75.5,kg,75.5,75.5,kg,,4,WEEK 8,2024-05-19
INTEGRIS-001,VS,ICS001-008,276,HEIGHT,Height,162.0,cm,162.0,162.0,cm,,4,WEEK 8,2024-05-19
INTEGRIS-001,VS,ICS001-008,277,SYSBP,Systolic Blood Pressure,157.5,mmHg,157.5,157.5,mmHg,,5,WEEK 12,2024-06-16
INTEGRIS-001,VS,ICS001-008,278,DIABP,Diastolic Blood Pressure,80.7,mmHg,80.7,80.7,mmHg,,5,WEEK 12,2024-06-16
INTEGRIS-001,VS,ICS001-008,279,PULSE,Pulse Rate,57.3,beats/min,57.3,57.3,beats/min,,5,WEEK 12,2024-06-16
INTEGRIS-001,VS,ICS001-008,280,TEMP,Temperature,36.4,C,36.4,36.4,C,,5,WEEK 12,2024-06-16
INTEGRIS-001,VS,ICS001-008,281,WEIGHT,Weight,100.9,kg,100.9,100.9,kg,,5,WEEK 12,2024-06-16
INTEGRIS-001,VS,ICS001-008,282,HEIGHT,Height,173.3,cm,173.3,173.3,cm,,5,WEEK 12,2024-06-16
INTEGRIS-001,VS,ICS001-008,283,SYSBP,Systolic Blood Pressure,148.1,mmHg,148.1,148.1,mmHg,,6,WEEK 24,2024-07-14
INTEGRIS-001,VS,ICS001-008,284,DIABP,Diastolic Blood Pressure,86.7,mmHg,86.7,86.7,mmHg,,6,WEEK 24,2024-07-14
INTEGRIS-001,VS,ICS001-008,285,PULSE,Pulse Rate,99.5,beats/min,99.5,99.5,beats/min,,6,WEEK 24,2024-07-14
INTEGRIS-001,VS,ICS001-008,286,TEMP,Temperature,37.1,C,37.1,37.1,C,,6,WEEK 24,2024-07-14
INTEGRIS-001,VS,ICS001-008,287,WEIGHT,Weight,107.0,kg,107.0,107.0,kg,,6,WEEK 24,2024-07-14
INTEGRIS-001,VS,ICS001-008,288,HEIGHT,Height,190.7,cm,190.7,190.7,cm,,6,WEEK 24,2024-07-14
INTEGRIS-001,VS,ICS001-009,289,SYSBP,Systolic Blood Pressure,136.8,mmHg,136.8,136.8,mmHg,,1,SCREENING,2024-02-25
INTEGRIS-001,VS,ICS001-009,290,DIABP,Diastolic Blood Pressure,88.8,mmHg,88.8,88.8,mmHg,,1,SCREENING,2024-02-25
INTEGRIS-001,VS,ICS001-009,291,PULSE,Pulse Rate,77.7,beats/min,77.7,77.7,beats/min,,1,SCREENING,2024-02-25
INTEGRIS-001,VS,ICS001-009,292,TEMP,Temperature,37.5,C,37.5,37.5,C,,1,SCREENING,2024-02-25
INTEGRIS-001,VS,ICS001-009,293,WEIGHT,Weight,82.9,kg,82.9,82.9,kg,,1,SCREENING,2024-02-25
INTEGRIS-001,VS,ICS001-009,294,HEIGHT,Height,190.9,cm,190.9,190.9,cm,,1,SCREENING,2024-02-25
INTEGRIS-001,VS,ICS001-009,295,SYSBP,Systolic Blood Pressure,144.6,mmHg,144.6,144.6,mmHg,Y,2,BASELINE,2024-03-24
INTEGRIS-001,VS,ICS001-009,296,DIABP,Diastolic Blood Pressure,79.0,mmHg,79.0,79.0,mmHg,Y,2,BASELINE,2024-03-24
INTEGRIS-001,VS,ICS001-009,297,PULSE,Pulse Rate,66.7,beats/min,66.7,66.7,beats/min,Y,2,BASELINE,2024-03-24
INTEGRIS-001,VS,ICS001-009,298,TEMP,Temperature,36.4,C,36.4,36.4,C,Y,2,BASELINE,2024-03-24
INTEGRIS-001,VS,ICS001-009,299,WEIGHT,Weight,88.3,kg,88.3,88.3,kg,Y,2,BASELINE,2024-03-24
INTEGRIS-001,VS,ICS001-009,300,HEIGHT,Height,185.6,cm,185.6,185.6,cm,Y,2,BASELINE,2024-03-24
INTEGRIS-001,VS,ICS001-009,301,SYSBP,Systolic Blood Pressure,131.3,mmHg,131.3,131.3,mmHg,,3,WEEK 4,2024-04-21
INTEGRIS-001,VS,ICS001-009,302,DIABP,Diastolic Blood Pressure,85.1,mmHg,85.1,85.1,mmHg,,3,WEEK 4,2024-04-21
INTEGRIS-001,VS,ICS001-009,303,PULSE,Pulse Rate,67.4,beats/min,67.4,67.4,beats/min,,3,WEEK 4,2024-04-21
INTEGRIS-001,VS,ICS001-009,304,TEMP,Temperature,36.1,C,36.1,36.1,C,,3,WEEK 4,2024-04-21
INTEGRIS-001,VS,ICS001-009,305,WEIGHT,Weight,67.1,kg,67.1,67.1,kg,,3,WEEK 4,2024-04-21
INTEGRIS-001,VS,ICS001-009,306,HEIGHT,Height,165.9,cm,165.9,165.9,cm,,3,WEEK 4,2024-04-21
INTEGRIS-001,VS,ICS001-009,307,SYSBP,Systolic Blood Pressure,119.2,mmHg,119.2,119.2,mmHg,,4,WEEK 8,2024-05-19
INTEGRIS-001,VS,ICS001-009,308,DIABP,Diastolic Blood Pressure,81.6,mmHg,81.6,81.6,mmHg,,4,WEEK 8,2024-05-19
INTEGRIS-001,VS,ICS001-009,309,PULSE,Pulse Rate,61.2,beats/min,61.2,61.2,beats/min,,4,WEEK 8,2024-05-19
INTEGRIS-001,VS,ICS001-009,310,TEMP,Temperature,36.4,C,36.4,36.4,C,,4,WEEK 8,2024-05-19
INTEGRIS-001,VS,ICS001-009,311,WEIGHT,Weight,91.6,kg,91.6,91.6,kg,,4,WEEK 8,2024-05-19
INTEGRIS-001,VS,ICS001-009,312,HEIGHT,Height,183.3,cm,183.3,183.3,cm,,4,WEEK 8,2024-05-19
INTEGRIS-001,VS,ICS001-009,313,SYSBP,Systolic Blood Pressure,103.9,mmHg,103.9,103.9,mmHg,,5,WEEK 12,2024-06-16
INTEGRIS-001,VS,ICS001-009,314,DIABP,Diastolic Blood Pressure,76.3,mmHg,76.3,76.3,mmHg,,5,WEEK 12,2024-06-16
INTEGRIS-001,VS,ICS001-009,315,PULSE,Pulse Rate,79.4,beats/min,79.4,79.4,beats/min,,5,WEEK 12,2024-06-16
INTEGRIS-001,VS,ICS001-009,316,TEMP,Temperature,36.7,C,36.7,36.7,C,,5,WEEK 12,2024-06-16
INTEGRIS-001,VS,ICS001-009,317,WEIGHT,Weight,62.4,kg,62.4,62.4,kg,,5,WEEK 12,2024-06-16
INTEGRIS-001,VS,ICS001-009,318,HEIGHT,Height,171.8,cm,171.8,171.8,cm,,5,WEEK 12,2024-06-16
INTEGRIS-001,VS,ICS001-009,319,SYSBP,Systolic Blood Pressure,154.3,mmHg,154.3,154.3,mmHg,,6,WEEK 24,2024-07-14
INTEGRIS-001,VS,ICS001-009,320,DIABP,Diastolic Blood Pressure,83.4,mmHg,83.4,83.4,mmHg,,6,WEEK 24,2024-07-14
INTEGRIS-001,VS,ICS001-009,321,PULSE,Pulse Rate,86.3,beats/min,86.3,86.3,beats/min,,6,WEEK 24,2024-07-14
INTEGRIS-001,VS,ICS001-009,322,TEMP,Temperature,37.5,C,37.5,37.5,C,,6,WEEK 24,2024-07-14
INTEGRIS-001,VS,ICS001-009,323,WEIGHT,Weight,95.9,kg,95.9,95.9,kg,,6,WEEK 24,2024-07-14
INTEGRIS-001,VS,ICS001-009,324,HEIGHT,Height,170.2,cm,170.2,170.2,cm,,6,WEEK 24,2024-07-14
INTEGRIS-001,VS,ICS001-010,325,SYSBP,Systolic Blood Pressure,100.4,mmHg,100.4,100.4,mmHg,,1,SCREENING,2024-04-04
INTEGRIS-001,VS,ICS001-010,326,DIABP,Diastolic Blood Pressure,74.1,mmHg,74.1,74.1,mmHg,,1,SCREENING,2024-04-04
INTEGRIS-001,VS,ICS001-010,327,PULSE,Pulse Rate,88.9,beats/min,88.9,88.9,beats/min,,1,SCREENING,2024-04-04
INTEGRIS-001,VS,ICS001-010,328,TEMP,Temperature,37.5,C,37.5,37.5,C,,1,SCREENING,2024-04-04
INTEGRIS-001,VS,ICS001-010,329,WEIGHT,Weight,107.2,kg,107.2,107.2,kg,,1,SCREENING,2024-04-04
INTEGRIS-001,VS,ICS001-010,330,HEIGHT,Height,171.8,cm,171.8,171.8,cm,,1,SCREENING,2024-04-04
INTEGRIS-001,VS,ICS001-010,331,SYSBP,Systolic Blood Pressure,144.9,mmHg,144.9,144.9,mmHg,Y,2,BASELINE,2024-05-02
INTEGRIS-001,VS,ICS001-010,332,DIABP,Diastolic Blood Pressure,81.8,mmHg,81.8,81.8,mmHg,Y,2,BASELINE,2024-05-02
INTEGRIS-001,VS,ICS001-010,333,PULSE,Pulse Rate,82.1,beats/min,82.1,82.1,beats/min,Y,2,BASELINE,2024-05-02
INTEGRIS-001,VS,ICS001-010,334,TEMP,Temperature,36.4,C,36.4,36.4,C,Y,2,BASELINE,2024-05-02
INTEGRIS-001,VS,ICS001-010,335,WEIGHT,Weight,63.2,kg,63.2,63.2,kg,Y,2,BASELINE,2024-05-02
INTEGRIS-001,VS,ICS001-010,336,HEIGHT,Height,172.4,cm,172.4,172.4,cm,Y,2,BASELINE,2024-05-02
INTEGRIS-001,VS,ICS001-010,337,SYSBP,Systolic Blood Pressure,101.7,mmHg,101.7,101.7,mmHg,,3,WEEK 4,2024-05-30
INTEGRIS-001,VS,ICS001-010,338,DIABP,Diastolic Blood Pressure,73.4,mmHg,73.4,73.4,mmHg,,3,WEEK 4,2024-05-30
INTEGRIS-001,VS,ICS001-010,339,PULSE,Pulse Rate,85.6,beats/min,85.6,85.6,beats/min,,3,WEEK 4,2024-05-30
INTEGRIS-001,VS,ICS001-010,340,TEMP,Temperature,36.7,C,36.7,36.7,C,,3,WEEK 4,2024-05-30
INTEGRIS-001,VS,ICS001-010,341,WEIGHT,Weight,59.9,kg,59.9,59.9,kg,,3,WEEK 4,2024-05-30
INTEGRIS-001,VS,ICS001-010,342,HEIGHT,Height,173.7,cm,173.7,173.7,cm,,3,WEEK 4,2024-05-30
INTEGRIS-001,VS,ICS001-010,343,SYSBP,Systolic Blood Pressure,107.7,mmHg,107.7,107.7,mmHg,,4,WEEK 8,2024-06-27
INTEGRIS-001,VS,ICS001-010,344,DIABP,Diastolic Blood Pressure,84.9,mmHg,84.9,84.9,mmHg,,4,WEEK 8,2024-06-27
INTEGRIS-001,VS,ICS001-010,345,PULSE,Pulse Rate,56.2,beats/min,56.2,56.2,beats/min,,4,WEEK 8,2024-06-27
INTEGRIS-001,VS,ICS001-010,346,TEMP,Temperature,36.7,C,36.7,36.7,C,,4,WEEK 8,2024-06-27
INTEGRIS-001,VS,ICS001-010,347,WEIGHT,Weight,83.9,kg,83.9,83.9,kg,,4,WEEK 8,2024-06-27
INTEGRIS-001,VS,ICS001-010,348,HEIGHT,Height,156.1,cm,156.1,156.1,cm,,4,WEEK 8,2024-06-27
INTEGRIS-001,VS,ICS001-010,349,SYSBP,Systolic Blood Pressure,138.6,mmHg,138.6,138.6,mmHg,,5,WEEK 12,2024-07-25
INTEGRIS-001,VS,ICS001-010,350,DIABP,Diastolic Blood Pressure,65.4,mmHg,65.4,65.4,mmHg,,5,WEEK 12,2024-07-25
INTEGRIS-001,VS,ICS001-010,351,PULSE,Pulse Rate,75.8,beats/min,75.8,75.8,beats/min,,5,WEEK 12,2024-07-25
INTEGRIS-001,VS,ICS001-010,352,TEMP,Temperature,36.1,C,36.1,36.1,C,,5,WEEK 12,2024-07-25
INTEGRIS-001,VS,ICS001-010,353,WEIGHT,Weight,72.7,kg,72.7,72.7,kg,,5,WEEK 12,2024-07-25
INTEGRIS-001,VS,ICS001-010,354,HEIGHT,Height,163.5,cm,163.5,163.5,cm,,5,WEEK 12,2024-07-25
INTEGRIS-001,VS,ICS001-010,355,SYSBP,Systolic Blood Pressure,119.6,mmHg,119.6,119.6,mmHg,,6,WEEK 24,2024-08-22
INTEGRIS-001,VS,ICS001-010,356,DIABP,Diastolic Blood Pressure,90.4,mmHg,90.4,90.4,mmHg,,6,WEEK 24,2024-08-22
INTEGRIS-001,VS,ICS001-010,357,PULSE,Pulse Rate,72.1,beats/min,72.1,72.1,beats/min,,6,WEEK 24,2024-08-22
INTEGRIS-001,VS,ICS001-010,358,TEMP,Temperature,37.4,C,37.4,37.4,C,,6,WEEK 24,2024-08-22
INTEGRIS-001,VS,ICS001-010,359,WEIGHT,Weight,99.9,kg,99.9,99.9,kg,,6,WEEK 24,2024-08-22
INTEGRIS-001,VS,ICS001-010,360,HEIGHT,Height,165.1,cm,165.1,165.1,cm,,6,WEEK 24,2024-08-22
INTEGRIS-001,VS,ICS001-011,361,SYSBP,Systolic Blood Pressure,104.9,mmHg,104.9,104.9,mmHg,,1,SCREENING,2024-04-25
INTEGRIS-001,VS,ICS001-011,362,DIABP,Diastolic Blood Pressure,60.8,mmHg,60.8,60.8,mmHg,,1,SCREENING,2024-04-25
INTEGRIS-001,VS,ICS001-011,363,PULSE,Pulse Rate,79.3,beats/min,79.3,79.3,beats/min,,1,SCREENING,2024-04-25
INTEGRIS-001,VS,ICS001-011,364,TEMP,Temperature,37.8,C,37.8,37.8,C,,1,SCREENING,2024-04-25
INTEGRIS-001,VS,ICS001-011,365,WEIGHT,Weight,71.0,kg,71.0,71.0,kg,,1,SCREENING,2024-04-25
INTEGRIS-001,VS,ICS001-011,366,HEIGHT,Height,181.0,cm,181.0,181.0,cm,,1,SCREENING,2024-04-25
INTEGRIS-001,VS,ICS001-011,367,SYSBP,Systolic Blood Pressure,146.9,mmHg,146.9,146.9,mmHg,Y,2,BASELINE,2024-05-23
INTEGRIS-001,VS,ICS001-011,368,DIABP,Diastolic Blood Pressure,86.1,mmHg,86.1,86.1,mmHg,Y,2,BASELINE,2024-05-23
INTEGRIS-001,VS,ICS001-011,369,PULSE,Pulse Rate,88.9,beats/min,88.9,88.9,beats/min,Y,2,BASELINE,2024-05-23
INTEGRIS-001,VS,ICS001-011,370,TEMP,Temperature,37.7,C,37.7,37.7,C,Y,2,BASELINE,2024-05-23
INTEGRIS-001,VS,ICS001-011,371,WEIGHT,Weight,62.0,kg,62.0,62.0,kg,Y,2,BASELINE,2024-05-23
INTEGRIS-001,VS,ICS001-011,372,HEIGHT,Height,155.8,cm,155.8,155.8,cm,Y,2,BASELINE,2024-05-23
INTEGRIS-001,VS,ICS001-011,373,SYSBP,Systolic Blood Pressure,109.1,mmHg,109.1,109.1,mmHg,,3,WEEK 4,2024-06-20
INTEGRIS-001,VS,ICS001-011,374,DIABP,Diastolic Blood Pressure,65.0,mmHg,65.0,65.0,mmHg,,3,WEEK 4,2024-06-20
INTEGRIS-001,VS,ICS001-011,375,PULSE,Pulse Rate,85.1,beats/min,85.1,85.1,beats/min,,3,WEEK 4,2024-06-20
INTEGRIS-001,VS,ICS001-011,376,TEMP,Temperature,37.0,C,37.0,37.0,C,,3,WEEK 4,2024-06-20
INTEGRIS-001,VS,ICS001-011,377,WEIGHT,Weight,63.1,kg,63.1,63.1,kg,,3,WEEK 4,2024-06-20
INTEGRIS-001,VS,ICS001-011,378,HEIGHT,Height,183.0,cm,183.0,183.0,cm,,3,WEEK 4,2024-06-20
INTEGRIS-001,VS,ICS001-011,379,SYSBP,Systolic Blood Pressure,146.0,mmHg,146.0,146.0,mmHg,,4,WEEK 8,2024-07-18
INTEGRIS-001,VS,ICS001-011,380,DIABP,Diastolic Blood Pressure,66.7,mmHg,66.7,66.7,mmHg,,4,WEEK 8,2024-07-18
INTEGRIS-001,VS,ICS001-011,381,PULSE,Pulse Rate,82.3,beats/min,82.3,82.3,beats/min,,4,WEEK 8,2024-07-18
INTEGRIS-001,VS,ICS001-011,382,TEMP,Temperature,37.3,C,37.3,37.3,C,,4,WEEK 8,2024-07-18
INTEGRIS-001,VS,ICS001-011,383,WEIGHT,Weight,56.9,kg,56.9,56.9,kg,,4,WEEK 8,2024-07-18
INTEGRIS-001,VS,ICS001-011,384,HEIGHT,Height,187.8,cm,187.8,187.8,cm,,4,WEEK 8,2024-07-18
INTEGRIS-001,VS,ICS001-011,385,SYSBP,Systolic Blood Pressure,157.9,mmHg,157.9,157.9,mmHg,,5,WEEK 12,2024-08-15
INTEGRIS-001,VS,ICS001-011,386,DIABP,Diastolic Blood Pressure,64.3,mmHg,64.3,64.3,mmHg,,5,WEEK 12,2024-08-15
INTEGRIS-001,VS,ICS001-011,387,PULSE,Pulse Rate,56.2,beats/min,56.2,56.2,beats/min,,5,WEEK 12,2024-08-15
INTEGRIS-001,VS,ICS001-011,388,TEMP,Temperature,36.6,C,36.6,36.6,C,,5,WEEK 12,2024-08-15
INTEGRIS-001,VS,ICS001-011,389,WEIGHT,Weight,90.6,kg,90.6,90.6,kg,,5,WEEK 12,2024-08-15
INTEGRIS-001,VS,ICS001-011,390,HEIGHT,Height,193.3,cm,193.3,193.3,cm,,5,WEEK 12,2024-08-15
INTEGRIS-001,VS,ICS001-011,391,SYSBP,Systolic Blood Pressure,123.8,mmHg,123.8,123.8,mmHg,,6,WEEK 24,2024-09-12
INTEGRIS-001,VS,ICS001-011,392,DIABP,Diastolic Blood Pressure,88.6,mmHg,88.6,88.6,mmHg,,6,WEEK 24,2024-09-12
INTEGRIS-001,VS,ICS001-011,393,PULSE,Pulse Rate,58.4,beats/min,58.4,58.4,beats/min,,6,WEEK 24,2024-09-12
INTEGRIS-001,VS,ICS001-011,394,TEMP,Temperature,37.2,C,37.2,37.2,C,,6,WEEK 24,2024-09-12
INTEGRIS-001,VS,ICS001-011,395,WEIGHT,Weight,87.6,kg,87.6,87.6,kg,,6,WEEK 24,2024-09-12
INTEGRIS-001,VS,ICS001-011,396,HEIGHT,Height,159.1,cm,159.1,159.1,cm,,6,WEEK 24,2024-09-12
INTEGRIS-001,VS,ICS001-012,397,SYSBP,Systolic Blood Pressure,146.3,mmHg,146.3,146.3,mmHg,,1,SCREENING,2024-05-03
INTEGRIS-001,VS,ICS001-012,398,DIABP,Diastolic Blood Pressure,94.0,mmHg,94.0,94.0,mmHg,,1,SCREENING,2024-05-03
INTEGRIS-001,VS,ICS001-012,399,PULSE,Pulse Rate,82.0,beats/min,82.0,82.0,beats/min,,1,SCREENING,2024-05-03
INTEGRIS-001,VS,ICS001-012,400,TEMP,Temperature,36.2,C,36.2,36.2,C,,1,SCREENING,2024-05-03
INTEGRIS-001,VS,ICS001-012,401,WEIGHT,Weight,109.0,kg,109.0,109.0,kg,,1,SCREENING,2024-05-03
INTEGRIS-001,VS,ICS001-012,402,HEIGHT,Height,186.3,cm,186.3,186.3,cm,,1,SCREENING,2024-05-03
INTEGRIS-001,VS,ICS001-012,403,SYSBP,Systolic Blood Pressure,120.8,mmHg,120.8,120.8,mmHg,Y,2,BASELINE,2024-05-31
INTEGRIS-001,VS,ICS001-012,404,DIABP,Diastolic Blood Pressure,77.1,mmHg,77.1,77.1,mmHg,Y,2,BASELINE,2024-05-31
INTEGRIS-001,VS,ICS001-012,405,PULSE,Pulse Rate,71.7,beats/min,71.7,71.7,beats/min,Y,2,BASELINE,2024-05-31
INTEGRIS-001,VS,ICS001-012,406,TEMP,Temperature,36.9,C,36.9,36.9,C,Y,2,BASELINE,2024-05-31
INTEGRIS-001,VS,ICS001-012,407,WEIGHT,Weight,70.5,kg,70.5,70.5,kg,Y,2,BASELINE,2024-05-31
INTEGRIS-001,VS,ICS001-012,408,HEIGHT,Height,189.0,cm,189.0,189.0,cm,Y,2,BASELINE,2024-05-31
INTEGRIS-001,VS,ICS001-012,409,SYSBP,Systolic Blood Pressure,149.3,mmHg,149.3,149.3,mmHg,,3,WEEK 4,2024-06-28
INTEGRIS-001,VS,ICS001-012,410,DIABP,Diastolic Blood Pressure,64.2,mmHg,64.2,64.2,mmHg,,3,WEEK 4,2024-06-28
INTEGRIS-001,VS,ICS001-012,411,PULSE,Pulse Rate,98.2,beats/min,98.2,98.2,beats/min,,3,WEEK 4,2024-06-28
INTEGRIS-001,VS,ICS001-012,412,TEMP,Temperature,37.1,C,37.1,37.1,C,,3,WEEK 4,2024-06-28
INTEGRIS-001,VS,ICS001-012,413,WEIGHT,Weight,99.7,kg,99.7,99.7,kg,,3,WEEK 4,2024-06-28
INTEGRIS-001,VS,ICS001-012,414,HEIGHT,Height,183.3,cm,183.3,183.3,cm,,3,WEEK 4,2024-06-28
INTEGRIS-001,VS,ICS001-012,415,SYSBP,Systolic Blood Pressure,126.1,mmHg,126.1,126.1,mmHg,,4,WEEK 8,2024-07-26
INTEGRIS-001,VS,ICS001-012,416,DIABP,Diastolic Blood Pressure,89.4,mmHg,89.4,89.4,mmHg,,4,WEEK 8,2024-07-26
INTEGRIS-001,VS,ICS001-012,417,PULSE,Pulse Rate,98.4,beats/min,98.4,98.4,beats/min,,4,WEEK 8,2024-07-26
INTEGRIS-001,VS,ICS001-012,418,TEMP,Temperature,36.5,C,36.5,36.5,C,,4,WEEK 8,2024-07-26
INTEGRIS-001,VS,ICS001-012,419,WEIGHT,Weight,98.5,kg,98.5,98.5,kg,,4,WEEK 8,2024-07-26
INTEGRIS-001,VS,ICS001-012,420,HEIGHT,Height,176.5,cm,176.5,176.5,cm,,4,WEEK 8,2024-07-26
INTEGRIS-001,VS,ICS001-012,421,SYSBP,Systolic Blood Pressure,129.0,mmHg,129.0,129.0,mmHg,,5,WEEK 12,2024-08-23
INTEGRIS-001,VS,ICS001-012,422,DIABP,Diastolic Blood Pressure,77.4,mmHg,77.4,77.4,mmHg,,5,WEEK 12,2024-08-23
INTEGRIS-001,VS,ICS001-012,423,PULSE,Pulse Rate,87.9,beats/min,87.9,87.9,beats/min,,5,WEEK 12,2024-08-23
INTEGRIS-001,VS,ICS001-012,424,TEMP,Temperature,36.5,C,36.5,36.5,C,,5,WEEK 12,2024-08-23
INTEGRIS-001,VS,ICS001-012,425,WEIGHT,Weight,101.1,kg,101.1,101.1,kg,,5,WEEK 12,2024-08-23
INTEGRIS-001,VS,ICS001-012,426,HEIGHT,Height,188.2,cm,188.2,188.2,cm,,5,WEEK 12,2024-08-23
INTEGRIS-001,VS,ICS001-012,427,SYSBP,Systolic Blood Pressure,105.2,mmHg,105.2,105.2,mmHg,,6,WEEK 24,2024-09-20
INTEGRIS-001,VS,ICS001-012,428,DIABP,Diastolic Blood Pressure,95.3,mmHg,95.3,95.3,mmHg,,6,WEEK 24,2024-09-20
INTEGRIS-001,VS,ICS001-012,429,PULSE,Pulse Rate,66.0,beats/min,66.0,66.0,beats/min,,6,WEEK 24,2024-09-20
INTEGRIS-001,VS,ICS001-012,430,TEMP,Temperature,36.8,C,36.8,36.8,C,,6,WEEK 24,2024-09-20
INTEGRIS-001,VS,ICS001-012,431,WEIGHT,Weight,86.6,kg,86.6,86.6,kg,,6,WEEK 24,2024-09-20
INTEGRIS-001,VS,ICS001-012,432,HEIGHT,Height,170.2,cm,170.2,170.2,cm,,6,WEEK 24,2024-09-20
INTEGRIS-001,VS,ICS001-013,433,SYSBP,Systolic Blood Pressure,101.7,mmHg,101.7,101.7,mmHg,,1,SCREENING,2024-02-12
INTEGRIS-001,VS,ICS001-013,434,DIABP,Diastolic Blood Pressure,94.0,mmHg,94.0,94.0,mmHg,,1,SCREENING,2024-02-12
INTEGRIS-001,VS,ICS001-013,435,PULSE,Pulse Rate,63.2,beats/min,63.2,63.2,beats/min,,1,SCREENING,2024-02-12
INTEGRIS-001,VS,ICS001-013,436,TEMP,Temperature,36.4,C,36.4,36.4,C,,1,SCREENING,2024-02-12
INTEGRIS-001,VS,ICS001-013,437,WEIGHT,Weight,97.9,kg,97.9,97.9,kg,,1,SCREENING,2024-02-12
INTEGRIS-001,VS,ICS001-013,438,HEIGHT,Height,168.6,cm,168.6,168.6,cm,,1,SCREENING,2024-02-12
INTEGRIS-001,VS,ICS001-013,439,SYSBP,Systolic Blood Pressure,152.8,mmHg,152.8,152.8,mmHg,Y,2,BASELINE,2024-03-11
INTEGRIS-001,VS,ICS001-013,440,DIABP,Diastolic Blood Pressure,88.0,mmHg,88.0,88.0,mmHg,Y,2,BASELINE,2024-03-11
INTEGRIS-001,VS,ICS001-013,441,PULSE,Pulse Rate,67.4,beats/min,67.4,67.4,beats/min,Y,2,BASELINE,2024-03-11
INTEGRIS-001,VS,ICS001-013,442,TEMP,Temperature,36.0,C,36.0,36.0,C,Y,2,BASELINE,2024-03-11
INTEGRIS-001,VS,ICS001-013,443,WEIGHT,Weight,106.9,kg,106.9,106.9,kg,Y,2,BASELINE,2024-03-11
INTEGRIS-001,VS,ICS001-013,444,HEIGHT,Height,158.4,cm,158.4,158.4,cm,Y,2,BASELINE,2024-03-11
INTEGRIS-001,VS,ICS001-013,445,SYSBP,Systolic Blood Pressure,143.2,mmHg,143.2,143.2,mmHg,,3,WEEK 4,2024-04-08
INTEGRIS-001,VS,ICS001-013,446,DIABP,Diastolic Blood Pressure,79.5,mmHg,79.5,79.5,mmHg,,3,WEEK 4,2024-04-08
INTEGRIS-001,VS,ICS001-013,447,PULSE,Pulse Rate,89.1,beats/min,89.1,89.1,beats/min,,3,WEEK 4,2024-04-08
INTEGRIS-001,VS,ICS001-013,448,TEMP,Temperature,37.2,C,37.2,37.2,C,,3,WEEK 4,2024-04-08
INTEGRIS-001,VS,ICS001-013,449,WEIGHT,Weight,88.8,kg,88.8,88.8,kg,,3,WEEK 4,2024-04-08
INTEGRIS-001,VS,ICS001-013,450,HEIGHT,Height,174.6,cm,174.6,174.6,cm,,3,WEEK 4,2024-04-08
INTEGRIS-001,VS,ICS001-013,451,SYSBP,Systolic Blood Pressure,147.6,mmHg,147.6,147.6,mmHg,,4,WEEK 8,2024-05-06
INTEGRIS-001,VS,ICS001-013,452,DIABP,Diastolic Blood Pressure,63.7,mmHg,63.7,63.7,mmHg,,4,WEEK 8,2024-05-06
INTEGRIS-001,VS,ICS001-013,453,PULSE,Pulse Rate,65.0,beats/min,65.0,65.0,beats/min,,4,WEEK 8,2024-05-06
INTEGRIS-001,VS,ICS001-013,454,TEMP,Temperature,37.2,C,37.2,37.2,C,,4,WEEK 8,2024-05-06
INTEGRIS-001,VS,ICS001-013,455,WEIGHT,Weight,68.4,kg,68.4,68.4,kg,,4,WEEK 8,2024-05-06
INTEGRIS-001,VS,ICS001-013,456,HEIGHT,Height,178.3,cm,178.3,178.3,cm,,4,WEEK 8,2024-05-06
INTEGRIS-001,VS,ICS001-013,457,SYSBP,Systolic Blood Pressure,128.4,mmHg,128.4,128.4,mmHg,,5,WEEK 12,2024-06-03
INTEGRIS-001,VS,ICS001-013,458,DIABP,Diastolic Blood Pressure,81.2,mmHg,81.2,81.2,mmHg,,5,WEEK 12,2024-06-03
INTEGRIS-001,VS,ICS001-013,459,PULSE,Pulse Rate,74.1,beats/min,74.1,74.1,beats/min,,5,WEEK 12,2024-06-03
INTEGRIS-001,VS,ICS001-013,460,TEMP,Temperature,37.3,C,37.3,37.3,C,,5,WEEK 12,2024-06-03
INTEGRIS-001,VS,ICS001-013,461,WEIGHT,Weight,69.8,kg,69.8,69.8,kg,,5,WEEK 12,2024-06-03
INTEGRIS-001,VS,ICS001-013,462,HEIGHT,Height,183.1,cm,183.1,183.1,cm,,5,WEEK 12,2024-06-03
INTEGRIS-001,VS,ICS001-013,463,SYSBP,Systolic Blood Pressure,116.3,mmHg,116.3,116.3,mmHg,,6,WEEK 24,2024-07-01
INTEGRIS-001,VS,ICS001-013,464,DIABP,Diastolic Blood Pressure,70.1,mmHg,70.1,70.1,mmHg,,6,WEEK 24,2024-07-01
INTEGRIS-001,VS,ICS001-013,465,PULSE,Pulse Rate,60.4,beats/min,60.4,60.4,beats/min,,6,WEEK 24,2024-07-01
INTEGRIS-001,VS,ICS001-013,466,TEMP,Temperature,36.3,C,36.3,36.3,C,,6,WEEK 24,2024-07-01
INTEGRIS-001,VS,ICS001-013,467,WEIGHT,Weight,57.2,kg,57.2,57.2,kg,,6,WEEK 24,2024-07-01
INTEGRIS-001,VS,ICS001-013,468,HEIGHT,Height,176.4,cm,176.4,176.4,cm,,6,WEEK 24,2024-07-01
INTEGRIS-001,VS,ICS001-014,469,SYSBP,Systolic Blood Pressure,145.7,mmHg,145.7,145.7,mmHg,,1,SCREENING,2024-05-29
INTEGRIS-001,VS,ICS001-014,470,DIABP,Diastolic Blood Pressure,67.4,mmHg,67.4,67.4,mmHg,,1,SCREENING,2024-05-29
INTEGRIS-001,VS,ICS001-014,471,PULSE,Pulse Rate,64.7,beats/min,64.7,64.7,beats/min,,1,SCREENING,2024-05-29
INTEGRIS-001,VS,ICS001-014,472,TEMP,Temperature,36.9,C,36.9,36.9,C,,1,SCREENING,2024-05-29
INTEGRIS-001,VS,ICS001-014,473,WEIGHT,Weight,93.5,kg,93.5,93.5,kg,,1,SCREENING,2024-05-29
INTEGRIS-001,VS,ICS001-014,474,HEIGHT,Height,194.1,cm,194.1,194.1,cm,,1,SCREENING,2024-05-29
INTEGRIS-001,VS,ICS001-014,475,SYSBP,Systolic Blood Pressure,131.5,mmHg,131.5,131.5,mmHg,Y,2,BASELINE,2024-06-26
INTEGRIS-001,VS,ICS001-014,476,DIABP,Diastolic Blood Pressure,71.3,mmHg,71.3,71.3,mmHg,Y,2,BASELINE,2024-06-26
INTEGRIS-001,VS,ICS001-014,477,PULSE,Pulse Rate,59.5,beats/min,59.5,59.5,beats/min,Y,2,BASELINE,2024-06-26
INTEGRIS-001,VS,ICS001-014,478,TEMP,Temperature,36.3,C,36.3,36.3,C,Y,2,BASELINE,2024-06-26
INTEGRIS-001,VS,ICS001-014,479,WEIGHT,Weight,63.6,kg,63.6,63.6,kg,Y,2,BASELINE,2024-06-26
INTEGRIS-001,VS,ICS001-014,480,HEIGHT,Height,162.2,cm,162.2,162.2,cm,Y,2,BASELINE,2024-06-26
INTEGRIS-001,VS,ICS001-014,481,SYSBP,Systolic Blood Pressure,100.8,mmHg,100.8,100.8,mmHg,,3,WEEK 4,2024-07-24
INTEGRIS-001,VS,ICS001-014,482,DIABP,Diastolic Blood Pressure,81.4,mmHg,81.4,81.4,mmHg,,3,WEEK 4,2024-07-24
INTEGRIS-001,VS,ICS001-014,483,PULSE,Pulse Rate,67.3,beats/min,67.3,67.3,beats/min,,3,WEEK 4,2024-07-24
INTEGRIS-001,VS,ICS001-014,484,TEMP,Temperature,37.8,C,37.8,37.8,C,,3,WEEK 4,2024-07-24
INTEGRIS-001,VS,ICS001-014,485,WEIGHT,Weight,83.2,kg,83.2,83.2,kg,,3,WEEK 4,2024-07-24
INTEGRIS-001,VS,ICS001-014,486,HEIGHT,Height,182.9,cm,182.9,182.9,cm,,3,WEEK 4,2024-07-24
INTEGRIS-001,VS,ICS001-014,487,SYSBP,Systolic Blood Pressure,107.6,mmHg,107.6,107.6,mmHg,,4,WEEK 8,2024-08-21
INTEGRIS-001,VS,ICS001-014,488,DIABP,Diastolic Blood Pressure,94.7,mmHg,94.7,94.7,mmHg,,4,WEEK 8,2024-08-21
INTEGRIS-001,VS,ICS001-014,489,PULSE,Pulse Rate,77.1,beats/min,77.1,77.1,beats/min,,4,WEEK 8,2024-08-21
INTEGRIS-001,VS,ICS001-014,490,TEMP,Temperature,37.6,C,37.6,37.6,C,,4,WEEK 8,2024-08-21
INTEGRIS-001,VS,ICS001-014,491,WEIGHT,Weight,84.4,kg,84.4,84.4,kg,,4,WEEK 8,2024-08-21
INTEGRIS-001,VS,ICS001-014,492,HEIGHT,Height,173.8,cm,173.8,173.8,cm,,4,WEEK 8,2024-08-21
INTEGRIS-001,VS,ICS001-014,493,SYSBP,Systolic Blood Pressure,126.4,mmHg,126.4,126.4,mmHg,,5,WEEK 12,2024-09-18
INTEGRIS-001,VS,ICS001-014,494,DIABP,Diastolic Blood Pressure,67.4,mmHg,67.4,67.4,mmHg,,5,WEEK 12,2024-09-18
INTEGRIS-001,VS,ICS001-014,495,PULSE,Pulse Rate,57.3,beats/min,57.3,57.3,beats/min,,5,WEEK 12,2024-09-18
INTEGRIS-001,VS,ICS001-014,496,TEMP,Temperature,37.7,C,37.7,37.7,C,,5,WEEK 12,2024-09-18
INTEGRIS-001,VS,ICS001-014,497,WEIGHT,Weight,78.7,kg,78.7,78.7,kg,,5,WEEK 12,2024-09-18
INTEGRIS-001,VS,ICS001-014,498,HEIGHT,Height,187.9,cm,187.9,187.9,cm,,5,WEEK 12,2024-09-18
INTEGRIS-001,VS,ICS001-014,499,SYSBP,Systolic Blood Pressure,124.0,mmHg,124.0,124.0,mmHg,,6,WEEK 24,2024-10-16
INTEGRIS-001,VS,ICS001-014,500,DIABP,Diastolic Blood Pressure,63.0,mmHg,63.0,63.0,mmHg,,6,WEEK 24,2024-10-16
INTEGRIS-001,VS,ICS001-014,501,PULSE,Pulse Rate,83.3,beats/min,83.3,83.3,beats/min,,6,WEEK 24,2024-10-16
INTEGRIS-001,VS,ICS001-014,502,TEMP,Temperature,36.1,C,36.1,36.1,C,,6,WEEK 24,2024-10-16
INTEGRIS-001,VS,ICS001-014,503,WEIGHT,Weight,59.0,kg,59.0,59.0,kg,,6,WEEK 24,2024-10-16
INTEGRIS-001,VS,ICS001-014,504,HEIGHT,Height,177.5,cm,177.5,177.5,cm,,6,WEEK 24,2024-10-16
INTEGRIS-001,VS,ICS001-015,505,SYSBP,Systolic Blood Pressure,118.2,mmHg,118.2,118.2,mmHg,,1,SCREENING,2024-05-05
INTEGRIS-001,VS,ICS001-015,506,DIABP,Diastolic Blood Pressure,99.8,mmHg,99.8,99.8,mmHg,,1,SCREENING,2024-05-05
INTEGRIS-001,VS,ICS001-015,507,PULSE,Pulse Rate,60.3,beats/min,60.3,60.3,beats/min,,1,SCREENING,2024-05-05
INTEGRIS-001,VS,ICS001-015,508,TEMP,Temperature,37.4,C,37.4,37.4,C,,1,SCREENING,2024-05-05
INTEGRIS-001,VS,ICS001-015,509,WEIGHT,Weight,86.4,kg,86.4,86.4,kg,,1,SCREENING,2024-05-05
INTEGRIS-001,VS,ICS001-015,510,HEIGHT,Height,186.6,cm,186.6,186.6,cm,,1,SCREENING,2024-05-05
INTEGRIS-001,VS,ICS001-015,511,SYSBP,Systolic Blood Pressure,113.5,mmHg,113.5,113.5,mmHg,Y,2,BASELINE,2024-06-02
INTEGRIS-001,VS,ICS001-015,512,DIABP,Diastolic Blood Pressure,80.9,mmHg,80.9,80.9,mmHg,Y,2,BASELINE,2024-06-02
INTEGRIS-001,VS,ICS001-015,513,PULSE,Pulse Rate,75.3,beats/min,75.3,75.3,beats/min,Y,2,BASELINE,2024-06-02
INTEGRIS-001,VS,ICS001-015,514,TEMP,Temperature,36.8,C,36.8,36.8,C,Y,2,BASELINE,2024-06-02
INTEGRIS-001,VS,ICS001-015,515,WEIGHT,Weight,101.6,kg,101.6,101.6,kg,Y,2,BASELINE,2024-06-02
INTEGRIS-001,VS,ICS001-015,516,HEIGHT,Height,194.6,cm,194.6,194.6,cm,Y,2,BASELINE,2024-06-02
INTEGRIS-001,VS,ICS001-015,517,SYSBP,Systolic Blood Pressure,118.3,mmHg,118.3,118.3,mmHg,,3,WEEK 4,2024-06-30
INTEGRIS-001,VS,ICS001-015,518,DIABP,Diastolic Blood Pressure,84.8,mmHg,84.8,84.8,mmHg,,3,WEEK 4,2024-06-30
INTEGRIS-001,VS,ICS001-015,519,PULSE,Pulse Rate,82.4,beats/min,82.4,82.4,beats/min,,3,WEEK 4,2024-06-30
INTEGRIS-001,VS,ICS001-015,520,TEMP,Temperature,37.3,C,37.3,37.3,C,,3,WEEK 4,2024-06-30
INTEGRIS-001,VS,ICS001-015,521,WEIGHT,Weight,106.9,kg,106.9,106.9,kg,,3,WEEK 4,2024-06-30
INTEGRIS-001,VS,ICS001-015,522,HEIGHT,Height,163.3,cm,163.3,163.3,cm,,3,WEEK 4,2024-06-30
INTEGRIS-001,VS,ICS001-015,523,SYSBP,Systolic Blood Pressure,112.7,mmHg,112.7,112.7,mmHg,,4,WEEK 8,2024-07-28
INTEGRIS-001,VS,ICS001-015,524,DIABP,Diastolic Blood Pressure,86.4,mmHg,86.4,86.4,mmHg,,4,WEEK 8,2024-07-28
INTEGRIS-001,VS,ICS001-015,525,PULSE,Pulse Rate,62.1,beats/min,62.1,62.1,beats/min,,4,WEEK 8,2024-07-28
INTEGRIS-001,VS,ICS001-015,526,TEMP,Temperature,36.3,C,36.3,36.3,C,,4,WEEK 8,2024-07-28
INTEGRIS-001,VS,ICS001-015,527,WEIGHT,Weight,54.5,kg,54.5,54.5,kg,,4,WEEK 8,2024-07-28
INTEGRIS-001,VS,ICS001-015,528,HEIGHT,Height,155.1,cm,155.1,155.1,cm,,4,WEEK 8,2024-07-28
INTEGRIS-001,VS,ICS001-015,529,SYSBP,Systolic Blood Pressure,127.0,mmHg,127.0,127.0,mmHg,,5,WEEK 12,2024-08-25
INTEGRIS-001,VS,ICS001-015,530,DIABP,Diastolic Blood Pressure,83.8,mmHg,83.8,83.8,mmHg,,5,WEEK 12,2024-08-25
INTEGRIS-001,VS,ICS001-015,531,PULSE,Pulse Rate,68.1,beats/min,68.1,68.1,beats/min,,5,WEEK 12,2024-08-25
INTEGRIS-001,VS,ICS001-015,532,TEMP,Temperature,36.4,C,36.4,36.4,C,,5,WEEK 12,2024-08-25
INTEGRIS-001,VS,ICS001-015,533,WEIGHT,Weight,92.4,kg,92.4,92.4,kg,,5,WEEK 12,2024-08-25
INTEGRIS-001,VS,ICS001-015,534,HEIGHT,Height,183.1,cm,183.1,183.1,cm,,5,WEEK 12,2024-08-25
INTEGRIS-001,VS,ICS001-015,535,SYSBP,Systolic Blood Pressure,127.2,mmHg,127.2,127.2,mmHg,,6,WEEK 24,2024-09-22
INTEGRIS-001,VS,ICS001-015,536,DIABP,Diastolic Blood Pressure,87.5,mmHg,87.5,87.5,mmHg,,6,WEEK 24,2024-09-22
INTEGRIS-001,VS,ICS001-015,537,PULSE,Pulse Rate,96.6,beats/min,96.6,96.6,beats/min,,6,WEEK 24,2024-09-22
INTEGRIS-001,VS,ICS001-015,538,TEMP,Temperature,37.4,C,37.4,37.4,C,,6,WEEK 24,2024-09-22
INTEGRIS-001,VS,ICS001-015,539,WEIGHT,Weight,87.5,kg,87.5,87.5,kg,,6,WEEK 24,2024-09-22
INTEGRIS-001,VS,ICS001-015,540,HEIGHT,Height,181.4,cm,181.4,181.4,cm,,6,WEEK 24,2024-09-22
INTEGRIS-001,VS,ICS001-016,541,SYSBP,Systolic Blood Pressure,156.0,mmHg,156.0,156.0,mmHg,,1,SCREENING,2024-05-23
INTEGRIS-001,VS,ICS001-016,542,DIABP,Diastolic Blood Pressure,77.0,mmHg,77.0,77.0,mmHg,,1,SCREENING,2024-05-23
INTEGRIS-001,VS,ICS001-016,543,PULSE,Pulse Rate,79.5,beats/min,79.5,79.5,beats/min,,1,SCREENING,2024-05-23
INTEGRIS-001,VS,ICS001-016,544,TEMP,Temperature,37.2,C,37.2,37.2,C,,1,SCREENING,2024-05-23
INTEGRIS-001,VS,ICS001-016,545,WEIGHT,Weight,104.5,kg,104.5,104.5,kg,,1,SCREENING,2024-05-23
INTEGRIS-001,VS,ICS001-016,546,HEIGHT,Height,188.1,cm,188.1,188.1,cm,,1,SCREENING,2024-05-23
INTEGRIS-001,VS,ICS001-016,547,SYSBP,Systolic Blood Pressure,104.3,mmHg,104.3,104.3,mmHg,Y,2,BASELINE,2024-06-20
INTEGRIS-001,VS,ICS001-016,548,DIABP,Diastolic Blood Pressure,66.6,mmHg,66.6,66.6,mmHg,Y,2,BASELINE,2024-06-20
INTEGRIS-001,VS,ICS001-016,549,PULSE,Pulse Rate,68.8,beats/min,68.8,68.8,beats/min,Y,2,BASELINE,2024-06-20
INTEGRIS-001,VS,ICS001-016,550,TEMP,Temperature,37.3,C,37.3,37.3,C,Y,2,BASELINE,2024-06-20
INTEGRIS-001,VS,ICS001-016,551,WEIGHT,Weight,84.2,kg,84.2,84.2,kg,Y,2,BASELINE,2024-06-20
INTEGRIS-001,VS,ICS001-016,552,HEIGHT,Height,166.5,cm,166.5,166.5,cm,Y,2,BASELINE,2024-06-20
INTEGRIS-001,VS,ICS001-016,553,SYSBP,Systolic Blood Pressure,107.5,mmHg,107.5,107.5,mmHg,,3,WEEK 4,2024-07-18
INTEGRIS-001,VS,ICS001-016,554,DIABP,Diastolic Blood Pressure,87.5,mmHg,87.5,87.5,mmHg,,3,WEEK 4,2024-07-18
INTEGRIS-001,VS,ICS001-016,555,PULSE,Pulse Rate,86.5,beats/min,86.5,86.5,beats/min,,3,WEEK 4,2024-07-18
INTEGRIS-001,VS,ICS001-016,556,TEMP,Temperature,37.7,C,37.7,37.7,C,,3,WEEK 4,2024-07-18
INTEGRIS-001,VS,ICS001-016,557,WEIGHT,Weight,80.0,kg,80.0,80.0,kg,,3,WEEK 4,2024-07-18
INTEGRIS-001,VS,ICS001-016,558,HEIGHT,Height,174.8,cm,174.8,174.8,cm,,3,WEEK 4,2024-07-18
INTEGRIS-001,VS,ICS001-016,559,SYSBP,Systolic Blood Pressure,104.8,mmHg,104.8,104.8,mmHg,,4,WEEK 8,2024-08-15
INTEGRIS-001,VS,ICS001-016,560,DIABP,Diastolic Blood Pressure,61.6,mmHg,61.6,61.6,mmHg,,4,WEEK 8,2024-08-15
INTEGRIS-001,VS,ICS001-016,561,PULSE,Pulse Rate,74.4,beats/min,74.4,74.4,beats/min,,4,WEEK 8,2024-08-15
INTEGRIS-001,VS,ICS001-016,562,TEMP,Temperature,36.6,C,36.6,36.6,C,,4,WEEK 8,2024-08-15
INTEGRIS-001,VS,ICS001-016,563,WEIGHT,Weight,65.0,kg,65.0,65.0,kg,,4,WEEK 8,2024-08-15
INTEGRIS-001,VS,ICS001-016,564,HEIGHT,Height,158.7,cm,158.7,158.7,cm,,4,WEEK 8,2024-08-15
INTEGRIS-001,VS,ICS001-016,565,SYSBP,Systolic Blood Pressure,157.7,mmHg,157.7,157.7,mmHg,,5,WEEK 12,2024-09-12
INTEGRIS-001,VS,ICS001-016,566,DIABP,Diastolic Blood Pressure,93.4,mmHg,93.4,93.4,mmHg,,5,WEEK 12,2024-09-12
INTEGRIS-001,VS,ICS001-016,567,PULSE,Pulse Rate,80.9,beats/min,80.9,80.9,beats/min,,5,WEEK 12,2024-09-12
INTEGRIS-001,VS,ICS001-016,568,TEMP,Temperature,37.7,C,37.7,37.7,C,,5,WEEK 12,2024-09-12
INTEGRIS-001,VS,ICS001-016,569,WEIGHT,Weight,110.0,kg,110.0,110.0,kg,,5,WEEK 12,2024-09-12
INTEGRIS-001,VS,ICS001-016,570,HEIGHT,Height,181.9,cm,181.9,181.9,cm,,5,WEEK 12,2024-09-12
INTEGRIS-001,VS,ICS001-016,571,SYSBP,Systolic Blood Pressure,116.2,mmHg,116.2,116.2,mmHg,,6,WEEK 24,2024-10-10
INTEGRIS-001,VS,ICS001-016,572,DIABP,Diastolic Blood Pressure,61.6,mmHg,61.6,61.6,mmHg,,6,WEEK 24,2024-10-10
INTEGRIS-001,VS,ICS001-016,573,PULSE,Pulse Rate,89.0,beats/min,89.0,89.0,beats/min,,6,WEEK 24,2024-10-10
INTEGRIS-001,VS,ICS001-016,574,TEMP,Temperature,36.8,C,36.8,36.8,C,,6,WEEK 24,2024-10-10
INTEGRIS-001,VS,ICS001-016,575,WEIGHT,Weight,89.1,kg,89.1,89.1,kg,,6,WEEK 24,2024-10-10
INTEGRIS-001,VS,ICS001-016,576,HEIGHT,Height,191.6,cm,191.6,191.6,cm,,6,WEEK 24,2024-10-10
INTEGRIS-001,VS,ICS001-017,577,SYSBP,Systolic Blood Pressure,110.9,mmHg,110.9,110.9,mmHg,,1,SCREENING,2024-05-19
INTEGRIS-001,VS,ICS001-017,578,DIABP,Diastolic Blood Pressure,83.4,mmHg,83.4,83.4,mmHg,,1,SCREENING,2024-05-19
INTEGRIS-001,VS,ICS001-017,579,PULSE,Pulse Rate,83.6,beats/min,83.6,83.6,beats/min,,1,SCREENING,2024-05-19
INTEGRIS-001,VS,ICS001-017,580,TEMP,Temperature,36.9,C,36.9,36.9,C,,1,SCREENING,2024-05-19
INTEGRIS-001,VS,ICS001-017,581,WEIGHT,Weight,55.5,kg,55.5,55.5,kg,,1,SCREENING,2024-05-19
INTEGRIS-001,VS,ICS001-017,582,HEIGHT,Height,168.9,cm,168.9,168.9,cm,,1,SCREENING,2024-05-19
INTEGRIS-001,VS,ICS001-017,583,SYSBP,Systolic Blood Pressure,120.0,mmHg,120.0,120.0,mmHg,Y,2,BASELINE,2024-06-16
INTEGRIS-001,VS,ICS001-017,584,DIABP,Diastolic Blood Pressure,86.8,mmHg,86.8,86.8,mmHg,Y,2,BASELINE,2024-06-16
INTEGRIS-001,VS,ICS001-017,585,PULSE,Pulse Rate,93.6,beats/min,93.6,93.6,beats/min,Y,2,BASELINE,2024-06-16
INTEGRIS-001,VS,ICS001-017,586,TEMP,Temperature,36.6,C,36.6,36.6,C,Y,2,BASELINE,2024-06-16
INTEGRIS-001,VS,ICS001-017,587,WEIGHT,Weight,91.6,kg,91.6,91.6,kg,Y,2,BASELINE,2024-06-16
INTEGRIS-001,VS,ICS001-017,588,HEIGHT,Height,166.5,cm,166.5,166.5,cm,Y,2,BASELINE,2024-06-16
INTEGRIS-001,VS,ICS001-017,589,SYSBP,Systolic Blood Pressure,156.7,mmHg,156.7,156.7,mmHg,,3,WEEK 4,2024-07-14
INTEGRIS-001,VS,ICS001-017,590,DIABP,Diastolic Blood Pressure,92.5,mmHg,92.5,92.5,mmHg,,3,WEEK 4,2024-07-14
INTEGRIS-001,VS,ICS001-017,591,PULSE,Pulse Rate,79.8,beats/min,79.8,79.8,beats/min,,3,WEEK 4,2024-07-14
INTEGRIS-001,VS,ICS001-017,592,TEMP,Temperature,36.8,C,36.8,36.8,C,,3,WEEK 4,2024-07-14
INTEGRIS-001,VS,ICS001-017,593,WEIGHT,Weight,68.9,kg,68.9,68.9,kg,,3,WEEK 4,2024-07-14
INTEGRIS-001,VS,ICS001-017,594,HEIGHT,Height,167.9,cm,167.9,167.9,cm,,3,WEEK 4,2024-07-14
INTEGRIS-001,VS,ICS001-017,595,SYSBP,Systolic Blood Pressure,158.2,mmHg,158.2,158.2,mmHg,,4,WEEK 8,2024-08-11
INTEGRIS-001,VS,ICS001-017,596,DIABP,Diastolic Blood Pressure,76.2,mmHg,76.2,76.2,mmHg,,4,WEEK 8,2024-08-11
INTEGRIS-001,VS,ICS001-017,597,PULSE,Pulse Rate,78.2,beats/min,78.2,78.2,beats/min,,4,WEEK 8,2024-08-11
INTEGRIS-001,VS,ICS001-017,598,TEMP,Temperature,37.8,C,37.8,37.8,C,,4,WEEK 8,2024-08-11
INTEGRIS-001,VS,ICS001-017,599,WEIGHT,Weight,89.5,kg,89.5,89.5,kg,,4,WEEK 8,2024-08-11
INTEGRIS-001,VS,ICS001-017,600,HEIGHT,Height,176.7,cm,176.7,176.7,cm,,4,WEEK 8,2024-08-11
INTEGRIS-001,VS,ICS001-017,601,SYSBP,Systolic Blood Pressure,124.8,mmHg,124.8,124.8,mmHg,,5,WEEK 12,2024-09-08
INTEGRIS-001,VS,ICS001-017,602,DIABP,Diastolic Blood Pressure,67.5,mmHg,67.5,67.5,mmHg,,5,WEEK 12,2024-09-08
INTEGRIS-001,VS,ICS001-017,603,PULSE,Pulse Rate,71.3,beats/min,71.3,71.3,beats/min,,5,WEEK 12,2024-09-08
INTEGRIS-001,VS,ICS001-017,604,TEMP,Temperature,37.4,C,37.4,37.4,C,,5,WEEK 12,2024-09-08
INTEGRIS-001,VS,ICS001-017,605,WEIGHT,Weight,87.5,kg,87.5,87.5,kg,,5,WEEK 12,2024-09-08
INTEGRIS-001,VS,ICS001-017,606,HEIGHT,Height,185.4,cm,185.4,185.4,cm,,5,WEEK 12,2024-09-08
INTEGRIS-001,VS,ICS001-017,607,SYSBP,Systolic Blood Pressure,112.2,mmHg,112.2,112.2,mmHg,,6,WEEK 24,2024-10-06
INTEGRIS-001,VS,ICS001-017,608,DIABP,Diastolic Blood Pressure,82.0,mmHg,82.0,82.0,mmHg,,6,WEEK 24,2024-10-06
INTEGRIS-001,VS,ICS001-017,609,PULSE,Pulse Rate,96.7,beats/min,96.7,96.7,beats/min,,6,WEEK 24,2024-10-06
INTEGRIS-001,VS,ICS001-017,610,TEMP,Temperature,36.8,C,36.8,36.8,C,,6,WEEK 24,2024-10-06
INTEGRIS-001,VS,ICS001-017,611,WEIGHT,Weight,91.9,kg,91.9,91.9,kg,,6,WEEK 24,2024-10-06
INTEGRIS-001,VS,ICS001-017,612,HEIGHT,Height,159.9,cm,159.9,159.9,cm,,6,WEEK 24,2024-10-06
INTEGRIS-001,VS,ICS001-018,613,SYSBP,Systolic Blood Pressure,158.4,mmHg,158.4,158.4,mmHg,,1,SCREENING,2024-02-05
INTEGRIS-001,VS,ICS001-018,614,DIABP,Diastolic Blood Pressure,84.4,mmHg,84.4,84.4,mmHg,,1,SCREENING,2024-02-05
INTEGRIS-001,VS,ICS001-018,615,PULSE,Pulse Rate,65.8,beats/min,65.8,65.8,beats/min,,1,SCREENING,2024-02-05
INTEGRIS-001,VS,ICS001-018,616,TEMP,Temperature,36.3,C,36.3,36.3,C,,1,SCREENING,2024-02-05
INTEGRIS-001,VS,ICS001-018,617,WEIGHT,Weight,83.1,kg,83.1,83.1,kg,,1,SCREENING,2024-02-05
INTEGRIS-001,VS,ICS001-018,618,HEIGHT,Height,177.1,cm,177.1,177.1,cm,,1,SCREENING,2024-02-05
INTEGRIS-001,VS,ICS001-018,619,SYSBP,Systolic Blood Pressure,105.6,mmHg,105.6,105.6,mmHg,Y,2,BASELINE,2024-03-04
INTEGRIS-001,VS,ICS001-018,620,DIABP,Diastolic Blood Pressure,99.7,mmHg,99.7,99.7,mmHg,Y,2,BASELINE,2024-03-04
INTEGRIS-001,VS,ICS001-018,621,PULSE,Pulse Rate,96.1,beats/min,96.1,96.1,beats/min,Y,2,BASELINE,2024-03-04
INTEGRIS-001,VS,ICS001-018,622,TEMP,Temperature,36.8,C,36.8,36.8,C,Y,2,BASELINE,2024-03-04
INTEGRIS-001,VS,ICS001-018,623,WEIGHT,Weight,57.0,kg,57.0,57.0,kg,Y,2,BASELINE,2024-03-04
INTEGRIS-001,VS,ICS001-018,624,HEIGHT,Height,188.3,cm,188.3,188.3,cm,Y,2,BASELINE,2024-03-04
INTEGRIS-001,VS,ICS001-018,625,SYSBP,Systolic Blood Pressure,129.9,mmHg,129.9,129.9,mmHg,,3,WEEK 4,2024-04-01
INTEGRIS-001,VS,ICS001-018,626,DIABP,Diastolic Blood Pressure,88.7,mmHg,88.7,88.7,mmHg,,3,WEEK 4,2024-04-01
INTEGRIS-001,VS,ICS001-018,627,PULSE,Pulse Rate,77.9,beats/min,77.9,77.9,beats/min,,3,WEEK 4,2024-04-01
INTEGRIS-001,VS,ICS001-018,628,TEMP,Temperature,36.5,C,36.5,36.5,C,,3,WEEK 4,2024-04-01
INTEGRIS-001,VS,ICS001-018,629,WEIGHT,Weight,100.1,kg,100.1,100.1,kg,,3,WEEK 4,2024-04-01
INTEGRIS-001,VS,ICS001-018,630,HEIGHT,Height,194.2,cm,194.2,194.2,cm,,3,WEEK 4,2024-04-01
INTEGRIS-001,VS,ICS001-018,631,SYSBP,Systolic Blood Pressure,114.6,mmHg,114.6,114.6,mmHg,,4,WEEK 8,2024-04-29
INTEGRIS-001,VS,ICS001-018,632,DIABP,Diastolic Blood Pressure,82.1,mmHg,82.1,82.1,mmHg,,4,WEEK 8,2024-04-29
INTEGRIS-001,VS,ICS001-018,633,PULSE,Pulse Rate,72.3,beats/min,72.3,72.3,beats/min,,4,WEEK 8,2024-04-29
INTEGRIS-001,VS,ICS001-018,634,TEMP,Temperature,37.7,C,37.7,37.7,C,,4,WEEK 8,2024-04-29
INTEGRIS-001,VS,ICS001-018,635,WEIGHT,Weight,80.5,kg,80.5,80.5,kg,,4,WEEK 8,2024-04-29
INTEGRIS-001,VS,ICS001-018,636,HEIGHT,Height,190.2,cm,190.2,190.2,cm,,4,WEEK 8,2024-04-29
INTEGRIS-001,VS,ICS001-018,637,SYSBP,Systolic Blood Pressure,151.8,mmHg,151.8,151.8,mmHg,,5,WEEK 12,2024-05-27
INTEGRIS-001,VS,ICS001-018,638,DIABP,Diastolic Blood Pressure,71.0,mmHg,71.0,71.0,mmHg,,5,WEEK 12,2024-05-27
INTEGRIS-001,VS,ICS001-018,639,PULSE,Pulse Rate,90.6,beats/min,90.6,90.6,beats/min,,5,WEEK 12,2024-05-27
INTEGRIS-001,VS,ICS001-018,640,TEMP,Temperature,36.7,C,36.7,36.7,C,,5,WEEK 12,2024-05-27
INTEGRIS-001,VS,ICS001-018,641,WEIGHT,Weight,106.1,kg,106.1,106.1,kg,,5,WEEK 12,2024-05-27
INTEGRIS-001,VS,ICS001-018,642,HEIGHT,Height,175.3,cm,175.3,175.3,cm,,5,WEEK 12,2024-05-27
INTEGRIS-001,VS,ICS001-018,643,SYSBP,Systolic Blood Pressure,149.2,mmHg,149.2,149.2,mmHg,,6,WEEK 24,2024-06-24
INTEGRIS-001,VS,ICS001-018,644,DIABP,Diastolic Blood Pressure,71.3,mmHg,71.3,71.3,mmHg,,6,WEEK 24,2024-06-24
INTEGRIS-001,VS,ICS001-018,645,PULSE,Pulse Rate,68.4,beats/min,68.4,68.4,beats/min,,6,WEEK 24,2024-06-24
INTEGRIS-001,VS,ICS001-018,646,TEMP,Temperature,37.1,C,37.1,37.1,C,,6,WEEK 24,2024-06-24
INTEGRIS-001,VS,ICS001-018,647,WEIGHT,Weight,109.9,kg,109.9,109.9,kg,,6,WEEK 24,2024-06-24
INTEGRIS-001,VS,ICS001-018,648,HEIGHT,Height,174.6,cm,174.6,174.6,cm,,6,WEEK 24,2024-06-24
INTEGRIS-001,VS,ICS001-019,649,SYSBP,Systolic Blood Pressure,108.9,mmHg,108.9,108.9,mmHg,,1,SCREENING,2024-02-26
INTEGRIS-001,VS,ICS001-019,650,DIABP,Diastolic Blood Pressure,81.5,mmHg,81.5,81.5,mmHg,,1,SCREENING,2024-02-26
INTEGRIS-001,VS,ICS001-019,651,PULSE,Pulse Rate,70.5,beats/min,70.5,70.5,beats/min,,1,SCREENING,2024-02-26
INTEGRIS-001,VS,ICS001-019,652,TEMP,Temperature,37.0,C,37.0,37.0,C,,1,SCREENING,2024-02-26
INTEGRIS-001,VS,ICS001-019,653,WEIGHT,Weight,82.6,kg,82.6,82.6,kg,,1,SCREENING,2024-02-26
INTEGRIS-001,VS,ICS001-019,654,HEIGHT,Height,173.2,cm,173.2,173.2,cm,,1,SCREENING,2024-02-26
INTEGRIS-001,VS,ICS001-019,655,SYSBP,Systolic Blood Pressure,119.3,mmHg,119.3,119.3,mmHg,Y,2,BASELINE,2024-03-25
INTEGRIS-001,VS,ICS001-019,656,DIABP,Diastolic Blood Pressure,67.5,mmHg,67.5,67.5,mmHg,Y,2,BASELINE,2024-03-25
INTEGRIS-001,VS,ICS001-019,657,PULSE,Pulse Rate,86.4,beats/min,86.4,86.4,beats/min,Y,2,BASELINE,2024-03-25
INTEGRIS-001,VS,ICS001-019,658,TEMP,Temperature,37.0,C,37.0,37.0,C,Y,2,BASELINE,2024-03-25
INTEGRIS-001,VS,ICS001-019,659,WEIGHT,Weight,64.0,kg,64.0,64.0,kg,Y,2,BASELINE,2024-03-25
INTEGRIS-001,VS,ICS001-019,660,HEIGHT,Height,186.0,cm,186.0,186.0,cm,Y,2,BASELINE,2024-03-25
INTEGRIS-001,VS,ICS001-019,661,SYSBP,Systolic Blood Pressure,102.6,mmHg,102.6,102.6,mmHg,,3,WEEK 4,2024-04-22
INTEGRIS-001,VS,ICS001-019,662,DIABP,Diastolic Blood Pressure,89.8,mmHg,89.8,89.8,mmHg,,3,WEEK 4,2024-04-22
INTEGRIS-001,VS,ICS001-019,663,PULSE,Pulse Rate,86.7,beats/min,86.7,86.7,beats/min,,3,WEEK 4,2024-04-22
INTEGRIS-001,VS,ICS001-019,664,TEMP,Temperature,37.5,C,37.5,37.5,C,,3,WEEK 4,2024-04-22
INTEGRIS-001,VS,ICS001-019,665,WEIGHT,Weight,73.2,kg,73.2,73.2,kg,,3,WEEK 4,2024-04-22
INTEGRIS-001,VS,ICS001-019,666,HEIGHT,Height,181.5,cm,181.5,181.5,cm,,3,WEEK 4,2024-04-22
INTEGRIS-001,VS,ICS001-019,667,SYSBP,Systolic Blood Pressure,149.2,mmHg,149.2,149.2,mmHg,,4,WEEK 8,2024-05-20
INTEGRIS-001,VS,ICS001-019,668,DIABP,Diastolic Blood Pressure,99.2,mmHg,99.2,99.2,mmHg,,4,WEEK 8,2024-05-20
INTEGRIS-001,VS,ICS001-019,669,PULSE,Pulse Rate,77.3,beats/min,77.3,77.3,beats/min,,4,WEEK 8,2024-05-20
INTEGRIS-001,VS,ICS001-019,670,TEMP,Temperature,36.1,C,36.1,36.1,C,,4,WEEK 8,2024-05-20
INTEGRIS-001,VS,ICS001-019,671,WEIGHT,Weight,80.1,kg,80.1,80.1,kg,,4,WEEK 8,2024-05-20
INTEGRIS-001,VS,ICS001-019,672,HEIGHT,Height,178.6,cm,178.6,178.6,cm,,4,WEEK 8,2024-05-20
INTEGRIS-001,VS,ICS001-019,673,SYSBP,Systolic Blood Pressure,152.2,mmHg,152.2,152.2,mmHg,,5,WEEK 12,2024-06-17
INTEGRIS-001,VS,ICS001-019,674,DIABP,Diastolic Blood Pressure,95.0,mmHg,95.0,95.0,mmHg,,5,WEEK 12,2024-06-17
INTEGRIS-001,VS,ICS001-019,675,PULSE,Pulse Rate,74.8,beats/min,74.8,74.8,beats/min,,5,WEEK 12,2024-06-17
INTEGRIS-001,VS,ICS001-019,676,TEMP,Temperature,36.9,C,36.9,36.9,C,,5,WEEK 12,2024-06-17
INTEGRIS-001,VS,ICS001-019,677,WEIGHT,Weight,77.4,kg,77.4,77.4,kg,,5,WEEK 12,2024-06-17
INTEGRIS-001,VS,ICS001-019,678,HEIGHT,Height,183.9,cm,183.9,183.9,cm,,5,WEEK 12,2024-06-17
INTEGRIS-001,VS,ICS001-019,679,SYSBP,Systolic Blood Pressure,124.6,mmHg,124.6,124.6,mmHg,,6,WEEK 24,2024-07-15
INTEGRIS-001,VS,ICS001-019,680,DIABP,Diastolic Blood Pressure,86.2,mmHg,86.2,86.2,mmHg,,6,WEEK 24,2024-07-15
INTEGRIS-001,VS,ICS001-019,681,PULSE,Pulse Rate,61.9,beats/min,61.9,61.9,beats/min,,6,WEEK 24,2024-07-15
INTEGRIS-001,VS,ICS001-019,682,TEMP,Temperature,36.8,C,36.8,36.8,C,,6,WEEK 24,2024-07-15
INTEGRIS-001,VS,ICS001-019,683,WEIGHT,Weight,108.2,kg,108.2,108.2,kg,,6,WEEK 24,2024-07-15
INTEGRIS-001,VS,ICS001-019,684,HEIGHT,Height,168.5,cm,168.5,168.5,cm,,6,WEEK 24,2024-07-15
INTEGRIS-001,VS,ICS001-020,685,SYSBP,Systolic Blood Pressure,141.6,mmHg,141.6,141.6,mmHg,,1,SCREENING,2024-05-06
INTEGRIS-001,VS,ICS001-020,686,DIABP,Diastolic Blood Pressure,86.0,mmHg,86.0,86.0,mmHg,,1,SCREENING,2024-05-06
INTEGRIS-001,VS,ICS001-020,687,PULSE,Pulse Rate,93.3,beats/min,93.3,93.3,beats/min,,1,SCREENING,2024-05-06
INTEGRIS-001,VS,ICS001-020,688,TEMP,Temperature,37.5,C,37.5,37.5,C,,1,SCREENING,2024-05-06
INTEGRIS-001,VS,ICS001-020,689,WEIGHT,Weight,101.6,kg,101.6,101.6,kg,,1,SCREENING,2024-05-06
INTEGRIS-001,VS,ICS001-020,690,HEIGHT,Height,170.2,cm,170.2,170.2,cm,,1,SCREENING,2024-05-06
INTEGRIS-001,VS,ICS001-020,691,SYSBP,Systolic Blood Pressure,119.0,mmHg,119.0,119.0,mmHg,Y,2,BASELINE,2024-06-03
INTEGRIS-001,VS,ICS001-020,692,DIABP,Diastolic Blood Pressure,88.7,mmHg,88.7,88.7,mmHg,Y,2,BASELINE,2024-06-03
INTEGRIS-001,VS,ICS001-020,693,PULSE,Pulse Rate,89.2,beats/min,89.2,89.2,beats/min,Y,2,BASELINE,2024-06-03
INTEGRIS-001,VS,ICS001-020,694,TEMP,Temperature,37.6,C,37.6,37.6,C,Y,2,BASELINE,2024-06-03
INTEGRIS-001,VS,ICS001-020,695,WEIGHT,Weight,52.2,kg,52.2,52.2,kg,Y,2,BASELINE,2024-06-03
INTEGRIS-001,VS,ICS001-020,696,HEIGHT,Height,157.7,cm,157.7,157.7,cm,Y,2,BASELINE,2024-06-03
INTEGRIS-001,VS,ICS001-020,697,SYSBP,Systolic Blood Pressure,137.9,mmHg,137.9,137.9,mmHg,,3,WEEK 4,2024-07-01
INTEGRIS-001,VS,ICS001-020,698,DIABP,Diastolic Blood Pressure,96.8,mmHg,96.8,96.8,mmHg,,3,WEEK 4,2024-07-01
INTEGRIS-001,VS,ICS001-020,699,PULSE,Pulse Rate,99.9,beats/min,99.9,99.9,beats/min,,3,WEEK 4,2024-07-01
INTEGRIS-001,VS,ICS001-020,700,TEMP,Temperature,37.3,C,37.3,37.3,C,,3,WEEK 4,2024-07-01
INTEGRIS-001,VS,ICS001-020,701,WEIGHT,Weight,76.0,kg,76.0,76.0,kg,,3,WEEK 4,2024-07-01
INTEGRIS-001,VS,ICS001-020,702,HEIGHT,Height,158.9,cm,158.9,158.9,cm,,3,WEEK 4,2024-07-01
INTEGRIS-001,VS,ICS001-020,703,SYSBP,Systolic Blood Pressure,138.0,mmHg,138.0,138.0,mmHg,,4,WEEK 8,2024-07-29
INTEGRIS-001,VS,ICS001-020,704,DIABP,Diastolic Blood Pressure,94.9,mmHg,94.9,94.9,mmHg,,4,WEEK 8,2024-07-29
INTEGRIS-001,VS,ICS001-020,705,PULSE,Pulse Rate,75.0,beats/min,75.0,75.0,beats/min,,4,WEEK 8,2024-07-29
INTEGRIS-001,VS,ICS001-020,706,TEMP,Temperature,37.2,C,37.2,37.2,C,,4,WEEK 8,2024-07-29
INTEGRIS-001,VS,ICS001-020,707,WEIGHT,Weight,104.2,kg,104.2,104.2,kg,,4,WEEK 8,2024-07-29
INTEGRIS-001,VS,ICS001-020,708,HEIGHT,Height,156.8,cm,156.8,156.8,cm,,4,WEEK 8,2024-07-29
INTEGRIS-001,VS,ICS001-020,709,SYSBP,Systolic Blood Pressure,147.8,mmHg,147.8,147.8,mmHg,,5,WEEK 12,2024-08-26
INTEGRIS-001,VS,ICS001-020,710,DIABP,Diastolic Blood Pressure,71.7,mmHg,71.7,71.7,mmHg,,5,WEEK 12,2024-08-26
INTEGRIS-001,VS,ICS001-020,711,PULSE,Pulse Rate,71.9,beats/min,71.9,71.9,beats/min,,5,WEEK 12,2024-08-26
INTEGRIS-001,VS,ICS001-020,712,TEMP,Temperature,36.3,C,36.3,36.3,C,,5,WEEK 12,2024-08-26
INTEGRIS-001,VS,ICS001-020,713,WEIGHT,Weight,81.9,kg,81.9,81.9,kg,,5,WEEK 12,2024-08-26
INTEGRIS-001,VS,ICS001-020,714,HEIGHT,Height,177.6,cm,177.6,177.6,cm,,5,WEEK 12,2024-08-26
INTEGRIS-001,VS,ICS001-020,715,SYSBP,Systolic Blood Pressure,147.6,mmHg,147.6,147.6,mmHg,,6,WEEK 24,2024-09-23
INTEGRIS-001,VS,ICS001-020,716,DIABP,Diastolic Blood Pressure,66.8,mmHg,66.8,66.8,mmHg,,6,WEEK 24,2024-09-23
INTEGRIS-001,VS,ICS001-020,717,PULSE,Pulse Rate,58.6,beats/min,58.6,58.6,beats/min,,6,WEEK 24,2024-09-23
INTEGRIS-001,VS,ICS001-020,718,TEMP,Temperature,37.6,C,37.6,37.6,C,,6,WEEK 24,2024-09-23
INTEGRIS-001,VS,ICS001-020,719,WEIGHT,Weight,87.2,kg,87.2,87.2,kg,,6,WEEK 24,2024-09-23
INTEGRIS-001,VS,ICS001-020,720,HEIGHT,Height,164.6,cm,164.6,164.6,cm,,6,WEEK 24,2024-09-23
